// General information: 
//  MT Manager version: 2025.2.0 
//  XDA version: 2025.2.0 build 250509001 rev 1746715332 built on 2025-05-09
// Device information: 
//  DeviceId: 10B41B12
//  ProductCode: MTW2-3A7G6
//  Firmware Version: 4.14.0
//  Hardware Version: 3.0.0
// Device settings: 
//  Filter Profile: human(46.1)
//  Option Flags: Orientation Smoother Disabled, Position/Velocity Smoother Disabled, Continuous Zero Rotation Update Disabled, AHS Disabled, ICC Disabled
// Coordinate system: ENU
PacketCounter	SampleTimeFine	Acc_X	Acc_Y	Acc_Z	Quat_q0	Quat_q1	Quat_q2	Quat_q3
35970		6.843157	-2.432456	6.599477	0.798980	-0.038934	-0.579946	0.154200
35971		8.941443	-1.638826	9.381852	0.797888	-0.039865	-0.581438	0.153996
35972		10.156947	-1.172062	11.413509	0.797393	-0.041057	-0.582118	0.153678
35973		9.921641	-1.655474	8.453687	0.797334	-0.042625	-0.582192	0.153279
35974		9.223665	-2.967451	5.513836	0.797590	-0.044776	-0.581795	0.152837
35975		9.774230	-4.569029	2.860507	0.797760	-0.046797	-0.581345	0.153056
35976		10.352885	-5.491885	1.111008	0.797705	-0.047992	-0.580971	0.154392
35977		10.174626	-5.209800	1.057991	0.797563	-0.049231	-0.580451	0.156672
35978		9.038878	-2.496883	-2.388939	0.797149	-0.049863	-0.580149	0.159669
35979		8.654463	0.015479	-2.629591	0.796531	-0.050986	-0.580254	0.162002
35980		7.815688	0.345624	-2.723247	0.795550	-0.053756	-0.581142	0.162741
35981		6.629510	-1.513260	-1.903470	0.794223	-0.057434	-0.582553	0.162921
35982		6.061453	-2.191662	-1.485253	0.792569	-0.060941	-0.584274	0.163537
35983		5.655119	-3.126798	-1.475667	0.790589	-0.064239	-0.586319	0.164537
35984		5.173617	-3.842946	-1.216567	0.788354	-0.066971	-0.588491	0.166408
35985		5.396273	-4.266547	4.642228	0.785975	-0.069267	-0.590556	0.169380
35986		11.074964	-1.760431	13.175041	0.783918	-0.069832	-0.591800	0.174268
35987		12.769908	2.328863	17.033650	0.783304	-0.070443	-0.591425	0.178015
35988		13.425065	1.291502	16.504357	0.783668	-0.073139	-0.590132	0.179609
35989		13.929772	-2.053530	13.362135	0.785184	-0.078752	-0.587516	0.179191
35990		9.487202	-5.378008	-0.746610	0.786219	-0.086523	-0.585456	0.177806
35991		10.905660	-6.757414	-9.291714	0.786184	-0.091288	-0.584641	0.178259
35992		7.704567	-5.825961	-9.519611	0.785597	-0.092289	-0.584150	0.181902
35993		6.854128	-1.483446	-9.428269	0.784560	-0.092612	-0.584164	0.186123
35994		4.473314	-0.275443	-8.027020	0.782948	-0.095523	-0.585099	0.188489
35995		2.599678	-2.934305	-6.250459	0.780702	-0.100850	-0.587022	0.189046
35996		1.907879	-6.373776	-4.391727	0.778197	-0.105046	-0.589203	0.190303
35997		2.254569	-7.199617	0.559678	0.775725	-0.105840	-0.591099	0.194036
35998		4.248721	-5.873487	12.157490	0.773207	-0.103751	-0.592725	0.200158
35999		12.108942	-2.093633	22.141971	0.771995	-0.100625	-0.592857	0.205956
36000		16.679020	-0.290460	25.123185	0.772498	-0.097880	-0.591367	0.209647
36001		16.468127	-2.766266	20.494093	0.774534	-0.098294	-0.588317	0.210518
36002		13.843257	-6.284464	8.196712	0.776643	-0.101127	-0.585239	0.209988
36003		12.098174	-10.354807	0.637501	0.778419	-0.104129	-0.582539	0.209453
36004		10.785413	-12.107651	-2.364703	0.779478	-0.105093	-0.580592	0.210433
36005		12.249513	-10.672847	0.273177	0.781659	-0.106526	-0.576737	0.212217
36006		6.545101	-4.906562	-7.986355	0.783095	-0.106431	-0.573891	0.214671
36007		7.676134	0.044967	-5.614669	0.784042	-0.106902	-0.572307	0.215208
36008		5.257754	-1.432262	-5.167125	0.783920	-0.111100	-0.572677	0.212524
36009		4.632415	-4.545884	-5.453521	0.783285	-0.115820	-0.573719	0.209515
36010		3.696757	-4.887685	-3.367871	0.782451	-0.118878	-0.574830	0.207867
36011		3.295172	-4.043437	2.145996	0.781505	-0.120705	-0.575917	0.207362
36012		5.553948	-2.036619	9.260747	0.780433	-0.121928	-0.577124	0.207331
36013		10.982355	-1.017317	16.075587	0.780207	-0.124302	-0.577469	0.205805
36014		13.798198	-3.417779	18.739015	0.781172	-0.127499	-0.576239	0.203627
36015		13.489098	-6.302735	14.288890	0.782893	-0.130336	-0.573838	0.201991
36016		13.783807	-7.955472	8.202566	0.785232	-0.131269	-0.570477	0.201830
36017		12.063333	-7.880046	4.973692	0.788037	-0.130446	-0.566163	0.203570
36018		10.622307	-6.093011	2.807195	0.790826	-0.129051	-0.561649	0.206135
36019		11.809504	-3.800040	5.648885	0.793938	-0.130251	-0.556441	0.207537
36020		6.557375	-1.640064	-2.223731	0.796357	-0.134753	-0.552182	0.206765
36021		6.078024	0.094432	-5.457615	0.797996	-0.139496	-0.549376	0.204766
36022		4.168092	-1.102487	-7.887063	0.798740	-0.144963	-0.547919	0.201953
36023		3.476239	-2.308065	-6.367884	0.799120	-0.150989	-0.546998	0.198501
36024		3.588726	-3.267269	-4.613898	0.798933	-0.156850	-0.546679	0.195566
36025		3.914156	-5.252789	-2.213252	0.798498	-0.162440	-0.546407	0.193529
36026		4.012307	-6.469623	3.416033	0.798143	-0.166340	-0.545758	0.193512
36027		6.755296	-5.451846	9.770023	0.797936	-0.168463	-0.544763	0.195325
36028		11.529266	-4.966250	16.018759	0.798696	-0.170554	-0.542381	0.197025
36029		14.420552	-4.984174	18.102955	0.800367	-0.173204	-0.538536	0.198473
36030		16.317045	-7.489496	15.344797	0.802796	-0.176367	-0.533456	0.199592
36031		16.416530	-9.011049	11.290826	0.805848	-0.179187	-0.527162	0.201495
36032		14.362712	-7.946365	7.437975	0.808999	-0.182047	-0.520372	0.203941
36033		12.049993	-6.729761	4.647460	0.811642	-0.185963	-0.513992	0.206073
36034		11.975796	-4.675245	5.099270	0.814032	-0.191623	-0.507578	0.207357
36035		10.868832	-2.723240	6.148807	0.817163	-0.202014	-0.498971	0.206066
36036		3.635393	0.512674	-6.282052	0.818780	-0.211883	-0.493041	0.203999
36037		2.427331	0.237083	-5.137138	0.819603	-0.222006	-0.488584	0.200622
36038		1.917804	-1.184685	-6.021629	0.819485	-0.232989	-0.485446	0.196218
36039		1.641168	-3.313517	-5.126449	0.818815	-0.244761	-0.482820	0.191100
36040		1.235233	-6.226721	-4.470318	0.817657	-0.256294	-0.480571	0.186553
36041		1.522650	-9.085198	-3.286995	0.816417	-0.266089	-0.478384	0.183873
36042		1.713633	-10.334132	1.059269	0.815792	-0.272443	-0.475788	0.184077
36043		4.374785	-9.056551	7.441201	0.816074	-0.274690	-0.472755	0.187273
36044		8.368699	-7.141490	12.357231	0.817485	-0.275342	-0.468553	0.190689
36045		11.914558	-7.625544	15.256026	0.819053	-0.277649	-0.463696	0.192482
36046		14.122877	-10.395661	13.177407	0.820315	-0.281776	-0.458644	0.193212
36047		15.141540	-12.980994	10.293540	0.821733	-0.285278	-0.453305	0.194643
36048		13.811879	-12.130642	7.503084	0.823707	-0.286770	-0.447798	0.196844
36049		13.200902	-9.846078	8.467341	0.826263	-0.288549	-0.441301	0.198199
36050		9.950278	-8.301311	7.247071	0.829625	-0.292626	-0.432445	0.197697
36051		4.179389	-3.502459	-3.097440	0.832022	-0.294836	-0.426631	0.196970
36052		2.495825	-4.298196	-1.213906	0.833732	-0.297365	-0.422671	0.194456
36053		0.483310	-5.268978	-3.283700	0.835031	-0.299409	-0.420278	0.190902
36054		-0.289453	-6.587753	-3.698902	0.836509	-0.299944	-0.418606	0.187229
36055		-0.068664	-7.755263	-3.370702	0.838184	-0.298498	-0.417700	0.184049
36056		0.993381	-9.667619	-2.684084	0.839950	-0.295525	-0.417404	0.181444
36057		1.894168	-11.041462	-0.136638	0.842067	-0.290337	-0.417291	0.180266
36058		3.335457	-11.216879	4.702066	0.844561	-0.282637	-0.417240	0.180950
36059		6.178584	-9.676861	8.520266	0.847702	-0.272375	-0.416732	0.183161
36060		9.361263	-6.990228	10.795153	0.850748	-0.263284	-0.416010	0.183970
36061		12.400511	-7.785349	9.522753	0.853043	-0.257401	-0.415456	0.182916
36062		13.876867	-9.404374	8.433675	0.854969	-0.252882	-0.414925	0.181428
36063		13.662324	-8.326134	8.502380	0.857279	-0.247368	-0.413935	0.180387
36064		11.331051	-5.787279	8.636199	0.860059	-0.242178	-0.412081	0.178428
36065		7.709276	-4.514584	6.207616	0.863135	-0.238742	-0.409169	0.174871
36066		3.941391	-3.293314	-1.453906	0.865348	-0.234335	-0.408739	0.170859
36067		3.290959	-5.061561	-2.287286	0.867510	-0.229153	-0.408834	0.166643
36068		1.099913	-5.678777	-2.271366	0.869880	-0.222262	-0.409082	0.162975
36069		-1.031435	-5.333170	-0.080283	0.872552	-0.213064	-0.409315	0.160367
36070		-2.150497	-3.419686	2.132912	0.875459	-0.201609	-0.409507	0.158836
36071		-1.974674	-2.503317	7.143208	0.878414	-0.189191	-0.409580	0.157605
36072		1.888730	-0.729822	9.025942	0.881552	-0.174834	-0.409525	0.156810
36073		6.001992	-1.044248	9.634900	0.884926	-0.160795	-0.408859	0.154551
36074		9.980749	-2.781934	7.414037	0.887897	-0.149064	-0.408161	0.151071
36075		14.244420	-4.957078	5.994043	0.890300	-0.139983	-0.407697	0.146811
36076		16.950085	-7.878450	9.333809	0.892466	-0.131577	-0.406995	0.143341
36077		16.891684	-5.918303	11.855499	0.895391	-0.122470	-0.404355	0.140615
36078		11.940355	-2.640606	9.673135	0.898548	-0.114992	-0.400662	0.137325
36079		8.675935	-1.279665	7.778562	0.901458	-0.110051	-0.396918	0.133111
36080		6.001002	-1.898479	4.149101	0.903461	-0.106986	-0.394796	0.128248
36081		4.787703	-3.413602	1.327101	0.905089	-0.103950	-0.393397	0.123481
36082		2.727176	-4.200480	0.165095	0.906683	-0.098952	-0.391895	0.120634
36083		0.770534	-4.870581	0.815144	0.908403	-0.092296	-0.390012	0.119067
36084		-0.330334	-4.436972	2.374346	0.910183	-0.083344	-0.387730	0.119524
36085		-0.083193	-2.026847	8.080525	0.912060	-0.072857	-0.384880	0.121270
36086		3.596701	3.934134	15.414223	0.914408	-0.062445	-0.380639	0.122772
36087		5.890503	7.507688	14.023679	0.917258	-0.056106	-0.375255	0.121138
36088		10.819666	8.067559	7.398026	0.919940	-0.055262	-0.370556	0.115522
36089		13.899344	0.615232	6.225498	0.922422	-0.060643	-0.365963	0.107380
36090		14.150433	-8.087283	9.235577	0.924405	-0.065156	-0.361750	0.101819
36091		13.207497	-7.560340	11.293970	0.926421	-0.061337	-0.357624	0.100432
36092		11.768551	-2.225593	9.729556	0.928299	-0.052574	-0.354057	0.100697
36093		11.394014	-0.607353	9.400660	0.929892	-0.044079	-0.351011	0.100748
36094		12.145403	-2.391367	10.962472	0.932382	-0.037490	-0.345164	0.100603
36095		7.277159	-1.849352	7.170633	0.935328	-0.031023	-0.337497	0.101467
36096		3.314669	-0.174550	3.623364	0.937174	-0.025092	-0.332432	0.102779
36097		2.763561	-1.664241	2.089546	0.938137	-0.019655	-0.329583	0.104345
36098		2.659237	-2.473177	2.032156	0.938797	-0.012621	-0.327177	0.107037
36099		1.866831	-1.197852	3.118539	0.939304	-0.004306	-0.324691	0.110744
36100		1.310335	0.511246	6.033020	0.939594	0.003926	-0.322436	0.114813
36101		2.294506	3.988487	13.200598	0.939868	0.012007	-0.319878	0.119087
36102		6.146596	11.127250	17.555192	0.941389	0.016015	-0.314673	0.120461
36103		7.943859	10.234972	8.228153	0.943235	0.011716	-0.310557	0.117154
36104		12.078000	2.495531	0.551747	0.944603	0.001966	-0.308804	0.111181
36105		13.975674	-5.669465	5.352907	0.945200	-0.006789	-0.308364	0.107064
36106		12.933623	-6.904357	12.201519	0.945492	-0.009068	-0.307706	0.106209
36107		9.843244	-2.519949	12.429116	0.945710	-0.006880	-0.306936	0.106652
36108		7.259982	-0.507053	10.835406	0.945804	-0.005412	-0.306559	0.106989
36109		5.752778	-2.176025	10.463287	0.945885	-0.005427	-0.306290	0.107042
36110		4.756267	-3.458200	9.634233	0.946205	-0.004745	-0.305027	0.107848
36111		3.664487	-2.409006	7.468501	0.946560	-0.002498	-0.303251	0.109804
36112		4.040441	-1.197652	5.019424	0.946666	-0.000037	-0.302129	0.111992
36113		4.354569	-1.566555	3.755905	0.946494	0.002157	-0.301780	0.114338
36114		4.199346	-1.130926	4.159674	0.946118	0.004418	-0.301947	0.116918
36115		4.283392	0.082675	6.344024	0.945707	0.005903	-0.302239	0.119391
36116		5.033957	2.073939	8.808642	0.945474	0.006327	-0.302169	0.121381
36117		6.676072	3.541969	9.400858	0.945573	0.004070	-0.301723	0.121811
36118		7.837383	3.144731	7.881864	0.945859	-0.000754	-0.301275	0.120765
36119		8.678744	0.924479	8.073263	0.946075	-0.007104	-0.301291	0.118806
36120		8.578535	-1.272695	9.407104	0.946167	-0.012817	-0.301512	0.117022
36121		7.168222	-2.593472	10.695685	0.946228	-0.016577	-0.301609	0.115797
36122		6.046537	-2.975730	11.026282	0.946296	-0.018298	-0.301495	0.115286
36123		5.337385	-3.025420	10.028331	0.946430	-0.018397	-0.301033	0.115370
36124		5.128441	-3.153234	8.219643	0.946583	-0.017066	-0.300376	0.116032
36125		5.696830	-3.039603	6.748796	0.946650	-0.014274	-0.299791	0.117372
36126		6.155990	-2.490437	5.396349	0.946595	-0.010754	-0.299406	0.119156
36127		5.528641	-2.394171	3.980935	0.946367	-0.007338	-0.299450	0.121100
36128		4.439476	-2.473011	4.312548	0.945952	-0.004003	-0.299909	0.123338
36129		4.236799	-1.494147	7.000831	0.945454	-0.000811	-0.300455	0.125866
36130		4.947053	0.819083	9.750241	0.945072	0.001678	-0.300604	0.128345
36131		6.580925	2.940992	10.484723	0.944981	0.002512	-0.300179	0.129987
36132		7.490629	3.183923	8.366811	0.945078	0.000635	-0.299818	0.130139
36133		8.220432	0.362114	7.376268	0.945088	-0.003222	-0.300085	0.129413
36134		8.113514	-1.733148	9.027269	0.945010	-0.006343	-0.300337	0.129284
36135		7.356809	-1.848934	9.868633	0.944916	-0.008009	-0.300343	0.129858
36136		7.092949	-1.436469	9.237396	0.944828	-0.008543	-0.300196	0.130806
36137		7.068700	-1.431635	8.331653	0.944710	-0.008342	-0.300032	0.132038
36138		7.414038	-1.425219	7.996051	0.944598	-0.007384	-0.299677	0.133693
36139		6.971467	-0.977257	7.486334	0.944536	-0.005897	-0.298946	0.135827
36140		6.471286	-0.477932	6.631326	0.944325	-0.004054	-0.298502	0.138314
36141		5.980231	-0.415046	6.183382	0.943973	-0.002419	-0.298442	0.140863
36142		5.548452	-0.666957	7.011195	0.943481	-0.000914	-0.298712	0.143579
36143		5.785158	0.026333	9.401120	0.943025	0.000448	-0.298800	0.146361
36144		6.437787	1.234441	10.833053	0.942775	0.001202	-0.298357	0.148849
36145		6.900646	2.273019	9.660652	0.942692	0.000190	-0.297809	0.150473
36146		6.955654	1.275854	7.203828	0.942638	-0.003221	-0.297628	0.151134
36147		6.477273	-1.474653	6.653208	0.942458	-0.007875	-0.297908	0.151533
36148		6.000913	-3.111519	6.369384	0.942126	-0.012156	-0.298377	0.152390
36149		6.033326	-3.325447	6.309024	0.941651	-0.015543	-0.298940	0.153907
36150		6.177724	-2.572158	6.127722	0.941145	-0.018335	-0.299289	0.156002
36151		5.984156	-1.582624	5.665110	0.940668	-0.021249	-0.299434	0.158214
36152		5.555723	-0.812730	5.362025	0.940130	-0.024655	-0.299739	0.160323
36153		4.982593	-1.049034	4.445957	0.939468	-0.028709	-0.300402	0.162281
36154		4.417079	-1.984841	2.829352	0.938557	-0.033049	-0.301707	0.164292
36155		4.033036	-3.041296	1.598246	0.937416	-0.036841	-0.303506	0.166670
36156		3.314908	-3.199075	2.425680	0.936054	-0.040071	-0.305754	0.169446
36157		3.918387	-2.747846	7.124239	0.934331	-0.042344	-0.308633	0.173141
36158		6.637135	-0.263217	14.374409	0.932909	-0.044164	-0.310353	0.177231
36159		8.237636	3.365611	17.198227	0.932181	-0.046761	-0.310285	0.180486
36160		8.493265	4.243177	14.500348	0.931943	-0.053092	-0.309539	0.181244
36161		7.715533	-0.157698	9.865151	0.931695	-0.062416	-0.309022	0.180428
36162		6.575690	-4.691719	6.280360	0.931326	-0.070570	-0.308551	0.180131
36163		6.058432	-5.969637	4.538500	0.930825	-0.075067	-0.308237	0.181436
36164		6.017177	-4.853786	4.346471	0.930204	-0.076139	-0.308126	0.184344
36165		6.100209	-2.886512	4.513774	0.929596	-0.075890	-0.307903	0.187852
36166		4.945465	-1.778135	4.570809	0.928888	-0.076148	-0.307863	0.191285
36167		4.142263	-2.057869	4.445398	0.927989	-0.077709	-0.308228	0.194405
36168		2.798427	-3.575034	3.018269	0.926812	-0.080400	-0.309155	0.197428
36169		2.250638	-5.120495	1.350985	0.925199	-0.082773	-0.311077	0.200965
36170		1.997241	-5.354098	1.295500	0.923311	-0.084018	-0.313553	0.205237
36171		1.645911	-4.524520	3.289561	0.921203	-0.084261	-0.316447	0.210109
36172		2.078932	-2.831310	7.288690	0.918827	-0.083899	-0.319648	0.215737
36173		5.099354	-0.663698	12.887330	0.916670	-0.083822	-0.321891	0.221532
36174		6.047699	1.566585	15.101383	0.915205	-0.085385	-0.322519	0.226031
36175		6.898942	1.069123	13.081928	0.914106	-0.090372	-0.322568	0.228458
36176		7.331331	-1.717212	10.607594	0.913221	-0.097582	-0.321977	0.229859
36177		7.276429	-3.685597	9.444931	0.913048	-0.105368	-0.319037	0.231207
36178		3.685464	-3.486821	4.490387	0.912912	-0.111947	-0.315770	0.233128
36179		2.839240	-1.893249	1.157027	0.912056	-0.116836	-0.314720	0.235486
36180		2.674828	-1.409777	2.114058	0.911009	-0.120974	-0.314579	0.237632
36181		2.319725	-2.138365	2.290966	0.909814	-0.124535	-0.315350	0.239340
36182		2.725599	-3.883694	1.864496	0.908632	-0.126813	-0.316581	0.241003
36183		2.743765	-5.827319	1.575288	0.907442	-0.127270	-0.318254	0.243034
36184		2.531632	-7.420328	1.531447	0.906114	-0.125345	-0.320609	0.245877
36185		2.874675	-8.021762	2.736867	0.904506	-0.120767	-0.323713	0.249988
36186		3.910378	-7.331532	5.120946	0.902556	-0.114257	-0.327459	0.255163
36187		5.574650	-6.327269	7.806625	0.900418	-0.107277	-0.331515	0.260453
36188		6.850981	-5.514535	9.021018	0.898320	-0.101102	-0.335521	0.265001
36189		8.113768	-4.874470	9.403775	0.896307	-0.097096	-0.339549	0.268165
36190		9.057909	-4.902681	9.188997	0.894325	-0.096185	-0.343763	0.269739
36191		9.344123	-6.157032	8.149483	0.892374	-0.097673	-0.347935	0.270316
36192		8.704806	-6.832083	6.470342	0.890393	-0.098946	-0.352213	0.270843
36193		9.086961	-6.349406	5.333180	0.888356	-0.098485	-0.356731	0.271784
36194		9.184893	-4.895369	4.243070	0.886360	-0.096035	-0.361377	0.273039
36195		8.387774	-3.075359	3.563224	0.884331	-0.092168	-0.366446	0.274192
36196		8.506993	-2.244500	2.797017	0.882179	-0.087471	-0.372282	0.274801
36197		9.299711	-1.853034	2.416200	0.879851	-0.082208	-0.379038	0.274654
36198		9.734766	-2.288729	2.317798	0.877354	-0.076546	-0.386527	0.273839
36199		9.305951	-2.458304	1.710269	0.874538	-0.070585	-0.394834	0.272594
36200		8.413705	-2.959296	2.037643	0.871413	-0.064600	-0.403754	0.271014
36201		7.274740	-3.310788	1.743863	0.867892	-0.058536	-0.413255	0.269363
36202		6.989460	-3.325323	2.260353	0.864031	-0.052642	-0.423258	0.267455
36203		5.785290	-3.236267	2.620036	0.859741	-0.047141	-0.433863	0.265302
36204		5.136083	-2.857082	3.427450	0.855129	-0.042353	-0.444922	0.262688
36205		4.310716	-2.551728	4.022397	0.850201	-0.038481	-0.456399	0.259571
36206		3.543546	-1.833468	5.030643	0.845110	-0.035589	-0.468046	0.255843
36207		2.447170	-0.933324	6.808884	0.839845	-0.033780	-0.479949	0.251331
36208		0.937018	-0.142271	8.479989	0.834599	-0.032865	-0.491836	0.245889
36209		-0.128838	0.514482	10.516547	0.829448	-0.032781	-0.503613	0.239406
36210		-1.319123	0.931709	11.887609	0.824535	-0.033412	-0.514891	0.232189
36211		-1.780238	1.107710	12.536612	0.819792	-0.034798	-0.525831	0.224125
36212		-1.698994	0.461043	11.857935	0.815065	-0.036430	-0.536433	0.215828
36213		-0.792208	0.882371	14.532519	0.810265	-0.037808	-0.546771	0.207562
36214		0.929001	-1.143262	18.027253	0.806025	-0.039099	-0.555732	0.199893
36215		2.216709	-2.226822	20.585161	0.802513	-0.040034	-0.562978	0.193460
36216		3.147620	-2.373753	19.097337	0.799972	-0.040199	-0.568166	0.188721
36217		3.296705	-2.495232	10.181811	0.797864	-0.039965	-0.572267	0.185275
36218		5.606242	-1.022798	-0.053951	0.795144	-0.039466	-0.577031	0.182270
36219		9.297747	-1.170917	-7.546048	0.791626	-0.040256	-0.583068	0.178154
36220		9.645109	-4.942405	-7.001244	0.787484	-0.042449	-0.589590	0.174501
36221		8.180915	-3.377048	-2.043191	0.782738	-0.042524	-0.596004	0.174045
36222		6.793054	1.589271	6.066409	0.778320	-0.042645	-0.601701	0.174229
36223		5.995792	4.457849	11.010482	0.774657	-0.045720	-0.606753	0.172245
36224		8.436383	2.338003	11.169172	0.771872	-0.052884	-0.611255	0.166688
36225		9.905131	-2.367887	8.554050	0.770006	-0.062080	-0.614515	0.160021
36226		8.676241	-5.149539	6.082566	0.768675	-0.069867	-0.616458	0.155680
36227		7.457897	-4.480302	3.569616	0.767627	-0.075106	-0.617460	0.154439
36228		7.690173	-2.794240	1.985498	0.766748	-0.079004	-0.617858	0.155265
36229		8.903102	-1.869374	1.560179	0.766039	-0.082739	-0.617846	0.156857
36230		9.826479	-2.044304	1.807836	0.765400	-0.086579	-0.617628	0.158751
36231		10.237441	-2.698875	2.559282	0.764929	-0.090256	-0.617060	0.161164
36232		9.750506	-3.159073	2.600775	0.764545	-0.093607	-0.616212	0.164291
36233		9.876011	-3.477863	2.745364	0.764316	-0.096608	-0.615006	0.168092
36234		9.706800	-3.870319	3.467857	0.764249	-0.099440	-0.613405	0.172535
36235		9.688461	-4.488560	4.068400	0.764280	-0.102276	-0.611444	0.177629
36236		9.947345	-4.805772	4.067945	0.764618	-0.104950	-0.608852	0.183421
36237		10.659939	-4.356829	5.021859	0.765341	-0.107658	-0.605583	0.189555
36238		11.006008	-3.863573	5.786191	0.766627	-0.111085	-0.601499	0.195299
36239		11.088584	-3.908023	5.538378	0.768308	-0.115614	-0.596868	0.200211
36240		11.299633	-4.498203	5.582478	0.770376	-0.121200	-0.591738	0.204151
36241		11.040595	-5.117586	5.185036	0.772885	-0.127538	-0.586063	0.207155
36242		10.861513	-5.844664	4.571718	0.775738	-0.134524	-0.579930	0.209321
36243		10.583554	-7.070192	3.967685	0.778768	-0.142150	-0.573507	0.210722
36244		10.619036	-8.536521	3.524726	0.781887	-0.150292	-0.566840	0.211560
36245		10.416906	-9.571123	3.072916	0.785079	-0.158569	-0.559819	0.212388
36246		10.618466	-9.825450	2.682976	0.788153	-0.167057	-0.552690	0.213167
36247		10.674861	-9.695755	2.388693	0.791174	-0.175940	-0.545321	0.213806
36248		10.706217	-9.026322	1.746759	0.793864	-0.185438	-0.538149	0.213985
36249		11.193483	-8.546125	1.488984	0.796224	-0.195682	-0.531177	0.213512
36250		11.392710	-8.326730	1.362453	0.798211	-0.206324	-0.524505	0.212565
36251		12.014619	-7.907566	1.900439	0.799925	-0.216767	-0.518123	0.211375
36252		12.391622	-7.420774	2.122691	0.801481	-0.226531	-0.512066	0.209999
36253		12.800405	-7.016642	1.745709	0.802875	-0.235381	-0.506462	0.208526
36254		13.217572	-7.120104	1.819020	0.804183	-0.243062	-0.501387	0.206936
36255		12.859954	-7.405171	1.829472	0.805543	-0.249080	-0.496793	0.205561
36256		12.403693	-7.603967	1.575662	0.807056	-0.252962	-0.492710	0.204716
36257		12.119311	-7.447009	1.396671	0.808792	-0.254675	-0.489056	0.204500
36258		11.649455	-6.860926	1.021013	0.810726	-0.254622	-0.485782	0.204711
36259		10.882785	-6.160127	0.790857	0.812633	-0.253371	-0.483104	0.205039
36260		10.291655	-5.881305	0.946062	0.814398	-0.251532	-0.481070	0.205083
36261		9.271970	-6.042060	0.862831	0.815879	-0.249489	-0.479746	0.204793
36262		8.609110	-6.365656	0.605996	0.816979	-0.247485	-0.479145	0.204244
36263		8.080362	-6.567045	0.624097	0.817775	-0.245472	-0.479101	0.203593
36264		7.553512	-6.160073	0.661540	0.818304	-0.243502	-0.479509	0.202870
36265		6.955028	-5.306419	1.142079	0.818571	-0.241743	-0.480341	0.201927
36266		6.151783	-5.290151	1.762987	0.818609	-0.240322	-0.481545	0.200598
36267		5.421882	-5.719252	1.181887	0.818417	-0.238821	-0.483164	0.199277
36268		5.383428	-5.496140	0.866204	0.818119	-0.236692	-0.485121	0.198282
36269		5.096625	-4.911144	0.927707	0.817813	-0.233984	-0.487335	0.197327
36270		4.652377	-5.087476	0.809440	0.817442	-0.230758	-0.489982	0.196104
36271		4.730509	-5.941998	0.778979	0.816968	-0.226702	-0.493139	0.194896
36272		5.004716	-6.478797	0.596750	0.816515	-0.221400	-0.496586	0.194133
36273		5.304908	-6.392318	0.449268	0.815998	-0.214964	-0.500314	0.193971
36274		6.062569	-5.288608	3.552963	0.815372	-0.208158	-0.504207	0.193945
36275		5.875530	-5.333743	10.424262	0.815136	-0.202223	-0.507152	0.193537
36276		2.033575	-5.718367	9.954599	0.815229	-0.195979	-0.509381	0.193714
36277		3.724494	-4.664506	11.567117	0.815304	-0.190266	-0.511580	0.193296
36278		4.648303	-5.021862	14.195645	0.816231	-0.185449	-0.512341	0.192047
36279		5.133601	-5.271806	11.159411	0.817605	-0.181789	-0.512275	0.189866
36280		6.671506	-6.726068	6.115234	0.819057	-0.178907	-0.511963	0.187169
36281		7.954672	-7.374225	2.712078	0.820508	-0.175758	-0.511608	0.184748
36282		8.898064	-7.158892	2.630640	0.821980	-0.171992	-0.511262	0.182701
36283		8.810299	-6.356410	3.544165	0.823425	-0.167715	-0.510926	0.181102
36284		8.332232	-4.595568	4.009601	0.824728	-0.163249	-0.510856	0.179441
36285		8.242985	-3.535412	5.603627	0.825945	-0.159289	-0.510955	0.177106
36286		7.653111	-3.329466	6.449324	0.827245	-0.155886	-0.511013	0.173871
36287		7.117900	-4.264281	5.977730	0.828643	-0.152479	-0.510960	0.170355
36288		7.429222	-4.225444	5.543333	0.830241	-0.148330	-0.510718	0.166932
36289		7.585930	-4.101737	5.991900	0.832146	-0.143688	-0.510039	0.163546
36290		7.479495	-3.737715	5.613387	0.834313	-0.138595	-0.508993	0.160125
36291		7.731925	-3.429229	5.382210	0.836647	-0.133357	-0.507668	0.156559
36292		7.764112	-3.358139	5.070867	0.839151	-0.128034	-0.506079	0.152702
36293		7.792244	-3.642325	4.633188	0.841740	-0.122557	-0.504326	0.148692
36294		7.719103	-3.903569	4.591016	0.844423	-0.116637	-0.502366	0.144822
36295		7.634566	-4.008321	4.435330	0.847140	-0.110307	-0.500252	0.141188
36296		7.602427	-4.259382	4.013775	0.849921	-0.103593	-0.497924	0.137744
36297		7.830733	-4.153673	4.318933	0.852763	-0.096511	-0.495345	0.134590
36298		7.663457	-3.847443	4.658737	0.855692	-0.089290	-0.492450	0.131571
36299		7.607635	-3.441653	4.209021	0.858628	-0.082142	-0.489357	0.128611
36300		7.887154	-3.033477	4.544436	0.861597	-0.075461	-0.486021	0.125457
36301		7.890759	-2.608149	5.079314	0.864609	-0.069482	-0.482381	0.122200
36302		7.888525	-1.867615	5.160947	0.867677	-0.064337	-0.478451	0.118671
36303		8.623112	-1.070198	6.508031	0.870870	-0.060576	-0.474098	0.114663
36304		9.227891	-0.582138	6.760083	0.874256	-0.058297	-0.469216	0.110060
36305		9.926184	-0.112623	6.602665	0.877754	-0.057669	-0.463954	0.104731
36306		10.304935	-0.816538	7.229357	0.881322	-0.058633	-0.458322	0.098868
36307		9.994909	-1.769722	7.009768	0.884847	-0.060214	-0.452466	0.093246
36308		9.839044	-2.416494	7.108185	0.888364	-0.061230	-0.446337	0.088567
36309		9.733232	-2.255365	6.931989	0.891772	-0.061145	-0.440204	0.084993
36310		9.673916	-2.426976	7.171013	0.895095	-0.059893	-0.434052	0.082562
36311		9.302012	-2.565286	7.207315	0.898267	-0.057288	-0.428015	0.081471
36312		9.011525	-2.698145	7.099665	0.901243	-0.053369	-0.422184	0.081693
36313		8.667461	-2.317035	6.877717	0.903949	-0.048613	-0.416628	0.083276
36314		8.618489	-1.552865	7.197987	0.906389	-0.043598	-0.411282	0.086052
36315		8.670525	0.387604	7.538516	0.908589	-0.039025	-0.406088	0.089645
36316		8.757581	2.277228	7.811930	0.910645	-0.036095	-0.400934	0.093137
36317		9.033458	3.710158	7.832172	0.912553	-0.035385	-0.395902	0.096214
36318		9.369686	4.694750	8.422982	0.914415	-0.037414	-0.390834	0.098460
36319		9.228017	4.703199	8.319538	0.916227	-0.042117	-0.385736	0.099809
36320		9.017126	3.539727	7.790644	0.917904	-0.048823	-0.380749	0.100495
36321		8.794531	2.437000	7.858583	0.919410	-0.056508	-0.375841	0.101166
36322		8.419486	1.357430	7.662265	0.920686	-0.064966	-0.371105	0.101971
36323		7.879353	0.521595	6.884392	0.921653	-0.073707	-0.366668	0.103328
36324		7.585436	0.025320	7.220013	0.922313	-0.083034	-0.362443	0.105256
36325		7.029431	-1.591761	7.482378	0.922563	-0.092677	-0.358655	0.107960
36326		7.615418	-2.946641	6.699313	0.922469	-0.101450	-0.355279	0.111957
36327		8.267341	-3.613527	6.946242	0.922189	-0.109066	-0.352037	0.117227
36328		8.450039	-3.741096	7.168969	0.921791	-0.115340	-0.348823	0.123778
36329		8.676709	-3.523481	7.686624	0.921306	-0.120453	-0.345659	0.131175
36330		8.582740	-3.088912	8.131658	0.920697	-0.125030	-0.342510	0.139183
36331		8.475138	-2.774530	8.158596	0.919924	-0.129799	-0.339325	0.147478
36332		8.162786	-2.340946	8.161872	0.918940	-0.135480	-0.336032	0.155807
36333		7.936305	-2.196379	8.238092	0.917735	-0.142531	-0.332548	0.163887
36334		7.749200	-2.190895	8.322865	0.916271	-0.151355	-0.328830	0.171493
36335		7.648394	-2.837511	7.861746	0.914465	-0.162386	-0.324873	0.178445
36336		7.614164	-3.687792	7.045215	0.912210	-0.175734	-0.320683	0.184805
36337		7.786131	-3.850327	6.018397	0.909515	-0.190980	-0.316317	0.190403
36338		7.608063	-3.813480	5.249883	0.906331	-0.208064	-0.311847	0.195000
36339		6.649198	-4.194579	5.110808	0.902610	-0.226220	-0.307753	0.198515
36340		5.765451	-5.124102	5.333981	0.898518	-0.244526	-0.304141	0.200927
36341		4.390291	-5.929831	5.441995	0.894540	-0.261367	-0.300839	0.202440
36342		2.974187	-6.536831	5.277276	0.891086	-0.275366	-0.298068	0.203213
36343		1.972046	-8.041257	5.171497	0.888557	-0.285466	-0.295991	0.203383
36344		1.600518	-9.971054	4.831832	0.887301	-0.290841	-0.294395	0.203568
36345		1.745871	-11.554933	4.581065	0.887505	-0.291359	-0.292872	0.204131
36346		1.945890	-12.971072	4.997180	0.888849	-0.287890	-0.291422	0.205279
36347		2.460693	-13.268990	4.492950	0.890959	-0.281140	-0.290255	0.207132
36348		2.802685	-12.703491	4.008827	0.893485	-0.272669	-0.289114	0.209163
36349		2.522332	-12.076233	3.856560	0.896009	-0.263708	-0.288338	0.210921
36350		2.363063	-11.341771	3.362406	0.898322	-0.254853	-0.288087	0.212307
36351		2.155950	-10.773687	2.526034	0.900276	-0.246677	-0.288519	0.213095
36352		2.325171	-10.266409	2.390679	0.901993	-0.238856	-0.289656	0.213205
36353		2.569407	-9.424381	2.692065	0.903584	-0.230876	-0.291452	0.212809
36354		2.709100	-8.316529	3.354419	0.905143	-0.222732	-0.293618	0.211884
36355		2.486161	-7.071378	4.258256	0.906655	-0.214422	-0.296177	0.210428
36356		2.676704	-6.616439	5.695893	0.908190	-0.205664	-0.299031	0.208504
36357		3.332126	-5.862762	7.117083	0.909812	-0.195956	-0.301951	0.206565
36358		4.677762	-3.763936	8.632266	0.911669	-0.185441	-0.304470	0.204376
36359		5.659017	-1.747044	8.857043	0.913561	-0.175489	-0.306667	0.201406
36360		6.371850	-0.919511	7.569936	0.915483	-0.166412	-0.308586	0.197415
36361		6.248414	-1.522083	6.307007	0.917387	-0.157951	-0.310307	0.192772
36362		5.816843	-2.438222	5.328550	0.919280	-0.149199	-0.311960	0.188001
36363		5.287294	-2.936467	4.966861	0.921175	-0.139489	-0.313529	0.183519
36364		4.385841	-2.961724	4.855402	0.923055	-0.128983	-0.314839	0.179469
36365		3.823166	-2.554671	4.718695	0.924774	-0.118165	-0.316035	0.175933
36366		3.921322	-1.575279	4.665746	0.926377	-0.107548	-0.317034	0.172477
36367		3.975814	-0.861398	4.486504	0.927743	-0.098099	-0.318044	0.168869
36368		4.049333	-0.844996	4.185494	0.928891	-0.089964	-0.319093	0.165068
36369		3.839285	-1.053424	3.934045	0.929792	-0.082868	-0.320305	0.161317
36370		3.781626	-1.325912	3.917900	0.930486	-0.076269	-0.321644	0.157872
36371		3.717814	-1.184786	3.855039	0.930997	-0.069646	-0.323055	0.155018
36372		3.879652	-0.542032	4.636723	0.931388	-0.062713	-0.324441	0.152714
36373		4.245235	0.456429	6.043412	0.931684	-0.055969	-0.325780	0.150664
36374		4.813295	1.384936	7.222502	0.931950	-0.050243	-0.326969	0.148445
36375		5.475371	1.750618	8.286805	0.932197	-0.046011	-0.327995	0.145984
36376		5.972564	1.321229	9.124533	0.932496	-0.043078	-0.328713	0.143329
36377		6.374412	0.442406	8.877127	0.932798	-0.040782	-0.329245	0.140794
36378		6.599239	-0.596129	8.443126	0.933110	-0.038254	-0.329532	0.138747
36379		6.606331	-0.845675	7.575955	0.933361	-0.035177	-0.329737	0.137381
36380		6.595173	-0.680380	7.205013	0.933545	-0.031986	-0.329911	0.136487
36381		6.149815	-0.611348	6.749043	0.933618	-0.029235	-0.330189	0.135937
36382		5.700207	-0.826770	6.337990	0.933544	-0.027053	-0.330727	0.135585
36383		5.283474	-1.092047	6.049890	0.933311	-0.025332	-0.331536	0.135549
36384		4.917293	-1.312350	6.356368	0.932953	-0.024155	-0.332539	0.135766
36385		4.573792	-1.886168	8.093332	0.932453	-0.023320	-0.333735	0.136417
36386		5.879594	-1.838877	11.811332	0.931850	-0.022172	-0.334957	0.137723
36387		8.797299	-0.781035	17.009361	0.931574	-0.021346	-0.335196	0.139130
36388		11.603864	-0.405432	18.376281	0.931817	-0.021655	-0.334099	0.140094
36389		12.868011	-0.681212	14.762928	0.932477	-0.023094	-0.331881	0.140739
36390		12.326766	-1.479657	10.709593	0.933200	-0.024907	-0.329433	0.141389
36391		11.829305	-2.182878	8.750755	0.933700	-0.026158	-0.327599	0.142120
36392		12.993521	-2.636801	9.378305	0.934317	-0.027358	-0.325352	0.143001
36393		19.743299	-4.616180	19.910197	0.937972	-0.035369	-0.313547	0.143684
36394		-3.775274	-2.797184	-8.347324	0.939713	-0.037592	-0.306937	0.145997
36395		7.176706	-2.046336	-7.424526	0.938472	-0.038654	-0.309760	0.147729
36396		3.975958	-5.477756	-7.477617	0.936835	-0.032824	-0.312955	0.152713
36397		4.837413	0.748363	-3.700483	0.934864	-0.023868	-0.316684	0.158655
36398		6.062313	6.411753	0.201027	0.932717	-0.015776	-0.320770	0.164005
36399		5.858701	7.720731	2.405453	0.930520	-0.011637	-0.325806	0.166879
36400		5.287228	4.491174	3.283580	0.928256	-0.010452	-0.331730	0.167888
36401		4.531381	2.097471	3.805277	0.926014	-0.008571	-0.337682	0.168511
36402		4.494770	2.407464	6.782007	0.924053	-0.005207	-0.342806	0.169067
36403		5.603220	4.792078	11.406342	0.922356	-0.001683	-0.347458	0.168908
36404		8.715887	4.534398	16.623781	0.921212	-0.002177	-0.351761	0.166219
36405		11.662813	0.250677	14.887887	0.920223	-0.004736	-0.356202	0.162132
36406		11.989070	-6.237755	13.894802	0.919699	-0.008774	-0.359135	0.158428
36407		10.767172	-11.662951	11.295398	0.919020	-0.010064	-0.361248	0.157484
36408		9.914235	-11.668651	9.778477	0.918083	-0.005816	-0.362585	0.160070
36409		10.005680	-7.517036	8.372410	0.916896	0.001782	-0.363529	0.164757
36410		9.620767	-4.269824	7.401581	0.915724	0.008718	-0.364135	0.169643
36411		7.658743	-3.133807	6.949374	0.914375	0.011328	-0.365658	0.173448
36412		5.144709	-3.500762	-0.516397	0.912442	0.011436	-0.368932	0.176659
36413		3.383247	-3.487392	-2.691135	0.910140	0.011997	-0.372900	0.180133
36414		2.480376	-2.233692	-3.368613	0.907349	0.013737	-0.377553	0.184345
36415		1.899004	-0.240460	-2.847263	0.904263	0.015564	-0.382706	0.188685
36416		1.269615	1.401935	-1.079287	0.900937	0.016923	-0.388392	0.192817
36417		0.880121	1.491989	1.983256	0.897474	0.017313	-0.394649	0.196195
36418		0.182879	0.949934	7.643815	0.893994	0.017339	-0.401003	0.199177
36419		2.148568	5.031092	11.703221	0.890373	0.018592	-0.407421	0.202235
36420		6.063741	7.173196	13.166208	0.887737	0.017171	-0.413090	0.202446
36421		10.717140	5.780987	11.012365	0.886012	0.013319	-0.417978	0.200247
36422		10.030842	0.428192	8.806492	0.884843	0.006477	-0.422370	0.196506
36423		9.099567	-5.882557	7.990164	0.883469	0.000922	-0.426616	0.193599
36424		7.595397	-8.037858	9.450311	0.881716	-0.000970	-0.430374	0.193272
36425		5.124777	-4.423986	3.594088	0.879043	0.002426	-0.434744	0.195639
36426		3.594860	0.521038	3.700407	0.876304	0.007890	-0.438892	0.198503
36427		1.448072	1.209314	4.113596	0.873669	0.011132	-0.443377	0.199987
36428		-0.188109	-1.211931	3.154482	0.871096	0.012283	-0.448171	0.200458
36429		-1.215881	-2.749009	3.749796	0.868217	0.014284	-0.453089	0.201756
36430		-0.708274	-3.277690	4.563924	0.864914	0.018477	-0.458054	0.204374
36431		0.821156	-4.418703	7.063354	0.861322	0.023683	-0.462916	0.208019
36432		0.385590	-6.304392	12.747634	0.857147	0.029925	-0.467597	0.213909
36433		5.926253	2.294657	12.706491	0.852856	0.038330	-0.471737	0.220527
36434		10.608652	2.692666	18.088919	0.850335	0.042038	-0.474610	0.223404
36435		12.445048	-1.852620	14.120302	0.848685	0.042466	-0.477002	0.224498
36436		17.116565	-2.667988	5.847580	0.847499	0.041652	-0.479024	0.224827
36437		17.187877	-7.381098	3.036590	0.846526	0.040258	-0.480513	0.225567
36438		17.064041	-7.146127	2.930928	0.844753	0.041252	-0.482304	0.228194
36439		14.420281	-2.557146	6.725268	0.842945	0.042839	-0.483943	0.231102
36440		10.888782	3.567700	4.800542	0.840965	0.044622	-0.486551	0.232498
36441		7.599719	4.662659	3.698700	0.839535	0.043826	-0.489534	0.231555
36442		4.369457	1.927207	2.843218	0.838576	0.040566	-0.492780	0.228721
36443		1.800443	-1.317092	3.831954	0.837776	0.036646	-0.495782	0.225805
36444		0.851112	-3.310454	2.892693	0.836699	0.033342	-0.498800	0.223655
36445		0.720024	-8.799566	3.653302	0.834992	0.030426	-0.502038	0.223204
36446		0.403716	-11.401642	5.265668	0.832095	0.031615	-0.505055	0.227019
36447		1.106772	-7.005682	8.545000	0.827903	0.038321	-0.507646	0.235379
36448		5.343622	-0.987655	7.264266	0.823619	0.045787	-0.509948	0.243944
36449		9.798036	-0.001436	10.551152	0.820468	0.050556	-0.511227	0.250846
36450		12.495298	6.212890	15.331799	0.818971	0.055467	-0.510259	0.256605
36451		16.095563	6.429356	7.325210	0.818376	0.055230	-0.510833	0.257412
36452		17.717236	-2.057039	0.548965	0.818206	0.051455	-0.512247	0.255920
36453		17.337079	-4.992101	-1.458588	0.817022	0.050512	-0.514069	0.256235
36454		16.480085	-0.837423	2.925007	0.815135	0.053057	-0.515929	0.257986
36455		15.869206	1.301111	7.881746	0.813946	0.054931	-0.517249	0.258704
36456		14.005668	2.411947	9.474548	0.814135	0.054753	-0.517313	0.258018
36457		11.476596	2.219593	9.141254	0.816022	0.051410	-0.516031	0.255299
36458		6.943172	0.096969	5.380361	0.818574	0.046029	-0.514528	0.251154
36459		4.317909	-1.660588	2.664899	0.820479	0.041194	-0.513850	0.247134
36460		3.563800	-1.863090	1.542781	0.821629	0.038708	-0.513574	0.244274
36461		3.694795	-1.364678	1.163729	0.822218	0.038022	-0.513640	0.242252
36462		3.288745	-1.876176	0.618794	0.822346	0.038151	-0.514206	0.240591
36463		2.093611	-2.532485	-0.393044	0.821721	0.039247	-0.515614	0.239533
36464		1.328387	-2.547597	0.397170	0.820084	0.041574	-0.518106	0.239375
36465		2.246465	-2.349058	3.416016	0.817537	0.044476	-0.521533	0.240122
36466		6.026974	-2.172671	5.482287	0.814967	0.046646	-0.524870	0.241174
36467		9.153212	-2.651719	5.508107	0.812791	0.048313	-0.527360	0.242752
36468		11.794529	-2.978933	4.485304	0.810529	0.049626	-0.529919	0.244469
36469		14.245408	-3.713208	2.941912	0.808219	0.050116	-0.532645	0.246091
36470		15.622733	-4.078762	2.391916	0.805956	0.050011	-0.535207	0.247966
36471		15.822283	-3.244114	3.194733	0.803940	0.049413	-0.537255	0.250193
36472		14.763739	-1.254706	4.336145	0.802410	0.047504	-0.538848	0.252041
36473		12.720978	0.056835	5.168330	0.801492	0.043972	-0.539966	0.253207
36474		10.197075	1.123643	4.905412	0.801054	0.039221	-0.540731	0.253742
36475		7.706454	1.786265	4.529064	0.800988	0.033494	-0.541317	0.253521
36476		5.481989	1.608356	3.847575	0.801051	0.027100	-0.542037	0.252545
36477		4.391541	0.135145	3.297972	0.801027	0.020940	-0.542857	0.251443
36478		3.820861	-1.715645	2.504431	0.800684	0.016062	-0.543678	0.251119
36479		4.025307	-2.775450	1.912291	0.799867	0.013071	-0.544492	0.252132
36480		4.250406	-3.211430	0.874037	0.798603	0.011594	-0.545398	0.254243
36481		3.759179	-3.751761	-0.723187	0.796736	0.011005	-0.546899	0.256890
36482		3.137120	-3.735830	-0.942675	0.794146	0.011242	-0.549113	0.260155
36483		2.761835	-2.507479	0.424472	0.790974	0.012010	-0.551867	0.263931
36484		2.856847	-1.139655	3.615692	0.787607	0.012696	-0.554867	0.267650
36485		5.325502	-0.157130	7.239579	0.783805	0.013461	-0.558448	0.271302
36486		11.629404	-2.273379	9.033475	0.780816	0.012926	-0.561639	0.273352
36487		15.467835	-5.825308	8.820023	0.778410	0.011246	-0.564448	0.274498
36488		15.768839	-7.727270	2.471091	0.776059	0.008717	-0.567350	0.275263
36489		13.512809	-7.194667	-0.404061	0.773732	0.006366	-0.569869	0.276671
36490		10.037154	-3.929635	3.185627	0.771294	0.003907	-0.572668	0.277744
36491		8.197997	-0.623023	6.995791	0.769312	0.000141	-0.575719	0.276960
36492		6.905904	1.098052	8.960846	0.768293	-0.005215	-0.578513	0.273901
36493		6.086885	0.687298	9.075492	0.768106	-0.011516	-0.581053	0.268809
36494		5.730961	-1.654807	7.964196	0.768747	-0.017980	-0.582862	0.262635
36495		5.742717	-4.571064	5.734157	0.770142	-0.023567	-0.583330	0.257004
36496		5.361233	-5.987157	1.947636	0.771328	-0.026588	-0.583316	0.253159
36497		5.437081	-6.472250	-0.908521	0.771313	-0.026737	-0.584111	0.251347
36498		5.024202	-5.878445	-1.115708	0.770009	-0.024553	-0.585916	0.251369
36499		5.046282	-4.621727	1.452227	0.767719	-0.021169	-0.588516	0.252605
36500		6.699266	-3.270641	4.789732	0.765128	-0.018204	-0.591448	0.253844
36501		8.089811	-2.305350	7.780353	0.762813	-0.016559	-0.594242	0.254400
36502		8.229844	-1.560535	8.560138	0.760776	-0.016275	-0.597068	0.253900
36503		8.082795	-1.408300	7.403989	0.759128	-0.017300	-0.599776	0.252376
36504		8.030451	-2.201266	6.406727	0.758035	-0.019700	-0.602179	0.249753
36505		8.669060	-4.045678	5.893534	0.758044	-0.023898	-0.603458	0.246243
36506		8.000613	-5.202322	3.296878	0.758679	-0.029347	-0.603918	0.242546
36507		6.841869	-4.134982	-1.760418	0.758047	-0.032642	-0.605490	0.240169
36508		8.040002	-2.011742	-1.641316	0.756803	-0.033508	-0.607457	0.239003
36509		7.700482	-0.139842	-2.087769	0.755617	-0.033295	-0.609297	0.238100
36510		6.996456	0.024638	-1.546398	0.754525	-0.033675	-0.611338	0.236272
36511		6.535980	-1.068715	-2.101091	0.753155	-0.034471	-0.613876	0.233933
36512		5.812632	-2.778087	-0.993620	0.751572	-0.034925	-0.616503	0.232041
36513		5.702452	-3.676308	3.117784	0.749702	-0.034694	-0.619071	0.231290
36514		8.484501	-3.176521	8.982097	0.747837	-0.034006	-0.621332	0.231365
36515		11.275130	-1.699162	12.659383	0.746603	-0.032798	-0.622705	0.231832
36516		13.421911	-1.416654	14.414978	0.746611	-0.031903	-0.622578	0.232273
36517		12.817634	-2.166450	9.873916	0.747631	-0.032198	-0.621429	0.232028
36518		12.598362	-4.999335	4.712908	0.748986	-0.034444	-0.620065	0.230984
36519		11.994904	-6.580100	2.344923	0.750341	-0.036430	-0.618327	0.230940
36520		10.400289	-6.198512	1.101738	0.751612	-0.038982	-0.616434	0.231450
36521		9.558662	-4.026260	-3.436586	0.752564	-0.042079	-0.614754	0.232280
36522		9.654201	-1.012569	-4.856962	0.753440	-0.045003	-0.613191	0.233023
36523		8.211981	-0.123766	-4.634529	0.753927	-0.048732	-0.612477	0.232575
36524		6.636341	-0.931794	-3.873367	0.754298	-0.053022	-0.612129	0.231346
36525		5.571980	-1.734850	-3.253526	0.754452	-0.056891	-0.611879	0.230583
36526		4.902151	-2.615058	-1.532340	0.754516	-0.060498	-0.611588	0.230231
36527		3.879017	-3.141621	0.003722	0.754484	-0.063402	-0.611133	0.230760
36528		3.627319	-3.906278	4.332266	0.754424	-0.066338	-0.610460	0.231910
36529		6.906214	-4.660152	9.423876	0.754362	-0.069059	-0.609391	0.234117
36530		11.888573	-4.528392	13.014710	0.755452	-0.071377	-0.606754	0.236744
36531		15.051403	-4.404632	15.129677	0.757829	-0.073540	-0.602169	0.240166
36532		16.245288	-3.933609	13.802548	0.761105	-0.077722	-0.596587	0.242410
36533		14.137612	-4.742033	4.827561	0.763885	-0.084526	-0.591875	0.242940
36534		13.058243	-3.477226	-1.332767	0.766759	-0.091118	-0.586969	0.243404
36535		10.658877	-1.120862	-2.795741	0.769932	-0.097187	-0.581636	0.243842
36536		9.980007	1.145656	-3.018393	0.773076	-0.104834	-0.576771	0.242277
36537		8.179141	-1.006980	-0.339936	0.775868	-0.117005	-0.572832	0.237070
36538		5.415041	-7.369974	-1.437413	0.777740	-0.132718	-0.569647	0.230237
36539		4.038616	-9.860460	-3.342040	0.779158	-0.147917	-0.566096	0.224876
36540		3.449509	-9.818180	-1.932364	0.780495	-0.161538	-0.561764	0.221706
36541		2.495721	-9.159364	3.596150	0.781578	-0.174403	-0.557002	0.220154
36542		5.528719	-9.719188	6.870990	0.781810	-0.187615	-0.552502	0.219808
36543		10.637056	-14.503943	9.947793	0.782155	-0.200421	-0.546833	0.221447
36544		16.982198	-12.694538	12.691241	0.784246	-0.207525	-0.538537	0.227750
36545		18.578013	-2.349779	12.819090	0.787922	-0.212059	-0.528844	0.233527
36546		17.681985	-4.667917	10.806741	0.790665	-0.221689	-0.520046	0.235063
36547		16.212707	-9.774868	7.016105	0.793231	-0.232066	-0.511220	0.235765
36548		14.911823	-8.348066	8.264902	0.796408	-0.240446	-0.501622	0.237268
36549		11.467900	-2.280576	2.509245	0.799109	-0.248164	-0.493132	0.238035
36550		9.062454	0.863376	0.916248	0.801379	-0.257783	-0.485792	0.235256
36551		6.148322	0.112516	-0.802252	0.802284	-0.270735	-0.480479	0.228434
36552		4.129180	-1.675833	-2.675897	0.802240	-0.285191	-0.476713	0.218682
36553		1.185909	-3.691485	-3.198061	0.802096	-0.298015	-0.473808	0.208169
36554		0.168150	-4.434433	-3.214458	0.802507	-0.307201	-0.471584	0.198037
36555		-0.008227	-6.013863	-0.680835	0.803436	-0.313427	-0.469887	0.188310
36556		-0.736234	0.071696	-0.291949	0.806344	-0.311510	-0.468795	0.181663
36557		2.965703	9.057281	5.565745	0.810635	-0.306392	-0.468222	0.172520
36558		6.557874	8.209934	-5.011948	0.813506	-0.301713	-0.470974	0.159248
36559		9.995955	-22.651461	0.979980	0.813340	-0.308341	-0.472540	0.141811
36560		11.489041	-39.932294	-2.156437	0.817373	-0.300227	-0.471054	0.140969
36561		13.784048	-22.137725	5.787479	0.828860	-0.268481	-0.465996	0.154134
36562		12.379532	-8.273875	10.397958	0.838437	-0.237245	-0.461970	0.165292
36563		16.135326	-6.622283	14.382149	0.844143	-0.218817	-0.459135	0.169522
36564		11.814955	-13.115916	7.284115	0.847319	-0.213205	-0.456284	0.168522
36565		8.363490	-14.319182	3.336592	0.849963	-0.208832	-0.453701	0.167654
36566		5.745590	-10.945612	1.405888	0.852130	-0.204356	-0.451790	0.167328
36567		4.884884	-8.890799	0.399208	0.853751	-0.200808	-0.450374	0.167177
36568		3.567160	-6.016561	0.860165	0.855340	-0.196672	-0.449100	0.167400
36569		2.037384	-2.785454	1.515053	0.856722	-0.192444	-0.448259	0.167503
36570		1.637208	-0.075323	4.443871	0.858065	-0.188630	-0.447621	0.166670
36571		4.484663	1.915471	6.058292	0.859476	-0.185544	-0.447076	0.164309
36572		8.684385	1.800606	5.556765	0.860510	-0.185597	-0.447164	0.158492
36573		11.420202	-3.917600	4.422920	0.860952	-0.187736	-0.447938	0.151222
36574		12.857639	-9.648235	5.317497	0.861298	-0.186639	-0.449350	0.146340
36575		13.310976	-9.182350	8.128807	0.862279	-0.178971	-0.450945	0.145234
36576		12.003713	-5.598033	9.191281	0.863674	-0.168084	-0.452342	0.145610
36577		10.889150	-3.305664	8.155481	0.865145	-0.157528	-0.453226	0.145926
36578		9.736368	-3.471346	7.039190	0.866715	-0.148560	-0.453378	0.145543
36579		8.512572	-3.847784	5.354609	0.868333	-0.140035	-0.453120	0.145157
36580		6.757913	-3.561321	4.815514	0.870033	-0.131340	-0.452543	0.144907
36581		5.314574	-2.746495	4.549869	0.871584	-0.122673	-0.452068	0.144661
36582		4.995679	-2.482622	4.499385	0.872985	-0.115059	-0.451612	0.143896
36583		5.901631	-2.445925	5.363988	0.874363	-0.108345	-0.450941	0.142839
36584		6.737227	-3.064799	7.965145	0.875937	-0.102627	-0.449682	0.141380
36585		8.806614	-3.947739	8.451499	0.877364	-0.097686	-0.448528	0.139685
36586		11.069759	-5.342413	6.834797	0.878936	-0.093954	-0.446885	0.137617
36587		11.718515	-6.286745	5.700264	0.880866	-0.090820	-0.444439	0.135280
36588		13.631850	-6.515521	9.153231	0.883251	-0.087632	-0.440716	0.134006
36589		11.234858	-7.649338	9.392441	0.888235	-0.087562	-0.430989	0.132741
36590		3.711069	-2.842050	-5.041976	0.890136	-0.080812	-0.427822	0.134523
36591		3.993839	-3.423248	-2.686603	0.891229	-0.070996	-0.426319	0.137559
36592		3.270216	-2.602687	-5.409808	0.891498	-0.058035	-0.426184	0.142233
36593		1.563211	-4.489907	-3.018234	0.891245	-0.042950	-0.426240	0.148855
36594		1.515446	-4.411325	-1.184363	0.890399	-0.024245	-0.426128	0.158166
36595		2.221837	-1.680553	1.250001	0.889083	-0.003711	-0.425490	0.168750
36596		2.221997	1.105617	6.732909	0.887442	0.016013	-0.424584	0.178657
36597		3.226596	3.053444	11.036719	0.885555	0.032266	-0.424101	0.186789
36598		2.473336	-0.929519	8.040010	0.883767	0.043548	-0.424317	0.192392
36599		4.203977	-2.388457	1.706226	0.881991	0.052743	-0.424888	0.196929
36600		8.977846	-0.047539	20.564925	0.882393	0.059601	-0.421345	0.200747
36601		8.582565	20.664493	17.241784	0.884119	0.064822	-0.416103	0.202459
36602		12.630322	6.617308	14.512401	0.888437	0.051480	-0.412955	0.193644
36603		14.552935	-2.951353	6.364294	0.892126	0.037918	-0.409820	0.186335
36604		15.717977	-5.200935	4.268489	0.894552	0.031784	-0.406648	0.182770
36605		16.674383	0.544529	5.619772	0.896409	0.035215	-0.402365	0.182518
36606		14.284755	6.814863	11.089383	0.898562	0.038927	-0.397637	0.181537
36607		10.339631	3.556940	10.316318	0.901173	0.040288	-0.392953	0.178473
36608		8.244421	0.919831	8.938587	0.903543	0.044259	-0.387930	0.176529
36609		6.832702	1.333324	7.656949	0.905501	0.052173	-0.382415	0.176366
36610		6.721435	2.575339	5.822077	0.906959	0.062669	-0.376948	0.177224
36611		6.251187	4.679083	5.077199	0.908104	0.073704	-0.371599	0.178404
36612		6.200968	6.535856	5.163141	0.909233	0.082606	-0.366849	0.178587
36613		8.381419	6.283847	5.594482	0.910716	0.086614	-0.363062	0.176861
36614		10.395254	0.727938	4.417875	0.912442	0.085294	-0.360762	0.173277
36615		12.780734	-5.869294	5.650568	0.913720	0.082889	-0.359392	0.170534
36616		12.457848	-7.163896	4.517070	0.914241	0.082822	-0.358415	0.169832
36617		11.510518	-4.285182	6.141663	0.914354	0.083556	-0.357851	0.170055
36618		9.183799	-1.354940	9.079124	0.914635	0.082348	-0.357416	0.170045
36619		7.308497	-0.673981	11.150684	0.915259	0.078508	-0.357020	0.169337
36620		6.560014	-1.201103	12.001138	0.916254	0.073382	-0.355792	0.168837
36621		6.148353	-1.391496	9.938675	0.917351	0.068922	-0.353701	0.169154
36622		6.395981	-1.477968	6.379911	0.918206	0.065975	-0.351432	0.170415
36623		7.127060	-0.756502	3.654313	0.918623	0.064841	-0.349552	0.172455
36624		7.484746	0.283807	3.175960	0.918730	0.064567	-0.348088	0.174933
36625		8.234563	1.564390	5.250856	0.918608	0.064168	-0.347186	0.177494
36626		9.923458	3.078618	7.769944	0.918581	0.063267	-0.346194	0.179880
36627		10.714834	3.574600	7.398790	0.918842	0.060918	-0.345211	0.181241
36628		10.740818	2.798704	6.988061	0.919163	0.057526	-0.344729	0.181634
36629		9.995491	1.812988	7.146540	0.919382	0.053953	-0.344776	0.181534
36630		9.301892	0.703783	8.018024	0.919653	0.050504	-0.344687	0.181325
36631		8.888803	-0.448960	8.300968	0.919915	0.047670	-0.344431	0.181247
36632		9.019191	-1.907659	7.211333	0.920022	0.045889	-0.344243	0.181524
36633		8.973165	-3.174000	5.569882	0.919862	0.045414	-0.344292	0.182361
36634		8.734861	-3.223372	3.998753	0.919375	0.046187	-0.344676	0.183889
36635		7.922702	-3.295963	2.760743	0.918678	0.047013	-0.345443	0.185715
36636		6.853509	-3.325412	1.578760	0.917697	0.047636	-0.346843	0.187785
36637		5.833489	-3.176416	0.919471	0.916458	0.048055	-0.348892	0.189922
36638		4.581167	-3.021873	2.264480	0.914982	0.048289	-0.351454	0.192239
36639		4.752705	-1.958474	4.663175	0.913165	0.049028	-0.354527	0.195028
36640		6.773931	-0.404249	8.346018	0.911474	0.049019	-0.357500	0.197501
36641		9.002297	-0.071809	9.355288	0.910149	0.047749	-0.359886	0.199577
36642		9.928353	-0.329617	9.009447	0.909192	0.046104	-0.361402	0.201575
36643		9.805647	-0.000968	7.702486	0.908447	0.044762	-0.362415	0.203409
36644		8.887306	-0.209223	6.364132	0.907754	0.043503	-0.363470	0.204888
36645		8.244373	-1.175394	4.817011	0.906916	0.042596	-0.364829	0.206370
36646		7.798449	-1.291028	2.856008	0.905920	0.042891	-0.366162	0.208313
36647		7.181139	-0.423577	1.865424	0.904684	0.043867	-0.367849	0.210500
36648		6.434134	0.265277	1.349792	0.903320	0.044631	-0.369963	0.212483
36649		5.457865	-0.273033	0.992812	0.901770	0.044660	-0.372836	0.214030
36650		5.107509	-1.452336	0.782137	0.900091	0.044201	-0.376163	0.215371
36651		4.201410	-2.200332	0.102778	0.898143	0.043845	-0.380031	0.216781
36652		3.086010	-2.506004	-0.445053	0.895888	0.043429	-0.384523	0.218268
36653		1.772335	-2.452489	-0.184500	0.893252	0.042931	-0.389734	0.219923
36654		1.223412	-2.312537	1.797513	0.890070	0.042307	-0.395841	0.222024
36655		3.208274	-1.922112	5.424748	0.886540	0.041449	-0.402371	0.224557
36656		5.841316	-2.328071	8.812099	0.883245	0.039752	-0.408403	0.226945
36657		8.431648	-1.716246	10.015076	0.880325	0.037488	-0.413547	0.229351
36658		9.414731	-0.904303	9.697778	0.877953	0.033934	-0.417669	0.231517
36659		9.028410	-0.851970	9.031560	0.875820	0.029525	-0.421413	0.233405
36660		7.656067	-0.208748	7.871415	0.873879	0.024950	-0.424823	0.235028
36661		6.347129	-0.424562	6.809945	0.871876	0.019935	-0.428412	0.236428
36662		5.457798	-0.176487	5.706208	0.869867	0.015031	-0.431815	0.237993
36663		4.079781	0.303401	5.300642	0.867834	0.009896	-0.435191	0.239533
36664		2.919318	0.272247	4.647936	0.865672	0.003937	-0.438942	0.240679
36665		2.433715	-0.197323	4.434133	0.863268	-0.002799	-0.443316	0.241313
36666		2.336627	-1.010316	4.256493	0.860688	-0.009939	-0.448062	0.241573
36667		2.323141	-1.580242	3.670303	0.857808	-0.016866	-0.453272	0.241713
36668		2.280389	-1.962572	3.179396	0.854589	-0.023087	-0.458954	0.241879
36669		1.833405	-2.231584	3.078522	0.850988	-0.028433	-0.465166	0.242137
36670		1.181157	-2.124253	3.504955	0.846998	-0.032809	-0.471808	0.242724
36671		1.238150	-1.843426	5.202654	0.842554	-0.036546	-0.478917	0.243732
36672		2.673935	-1.000946	6.942530	0.837911	-0.040081	-0.486144	0.244875
36673		4.954962	-1.165239	8.156518	0.833327	-0.044183	-0.493384	0.245328
36674		7.041677	-1.873462	8.348017	0.828863	-0.048758	-0.500394	0.245387
36675		8.454037	-2.366225	7.737788	0.824459	-0.053271	-0.507122	0.245475
36676		9.612967	-1.426213	7.083485	0.820269	-0.056678	-0.513360	0.245781
36677		9.329205	-2.215993	6.626318	0.816086	-0.060393	-0.519572	0.245767
36678		8.374816	-1.126698	6.960409	0.812023	-0.063739	-0.525560	0.245648
36679		7.247134	0.468935	8.077810	0.808238	-0.066975	-0.531286	0.244951
36680		6.256420	-0.406417	8.375620	0.804649	-0.071112	-0.537060	0.243002
36681		5.295972	-1.728758	8.364398	0.801281	-0.075080	-0.542556	0.240717
36682		4.495347	-2.782846	7.716813	0.798262	-0.078103	-0.547527	0.238520
36683		4.210454	-3.638524	5.831830	0.795256	-0.079778	-0.552366	0.236844
36684		5.066142	-3.751907	5.501742	0.792168	-0.079684	-0.557151	0.236013
36685		6.108533	-5.006357	5.737972	0.789108	-0.078075	-0.561732	0.235947
36686		6.575645	-5.814110	4.171041	0.785841	-0.074454	-0.566149	0.237459
36687		7.729124	-5.514185	4.964115	0.782478	-0.069418	-0.570309	0.240118
36688		8.820463	-5.295582	5.656028	0.779149	-0.063641	-0.574089	0.243512
36689		9.414607	-5.702602	5.953437	0.775872	-0.058116	-0.577590	0.247050
36690		9.249630	-4.987403	5.637949	0.772717	-0.052992	-0.580841	0.250447
36691		8.748678	-4.372566	5.972741	0.769861	-0.049240	-0.583833	0.253040
36692		7.484348	-3.622519	6.458770	0.767293	-0.046654	-0.586639	0.254833
36693		7.164058	-3.305935	6.634556	0.764698	-0.044666	-0.589724	0.255865
36694		7.693985	-3.136584	6.088229	0.762439	-0.042665	-0.592450	0.256651
36695		7.812341	-2.485870	5.534574	0.760678	-0.040097	-0.594459	0.257641
36696		7.528464	-0.753966	4.500036	0.759304	-0.036262	-0.596002	0.258697
36697		8.105931	0.728043	3.119664	0.758260	-0.031422	-0.597400	0.259167
36698		8.422651	1.877390	2.617973	0.757637	-0.025752	-0.598563	0.258930
36699		8.042653	1.870979	1.982428	0.757279	-0.019178	-0.599664	0.258000
36700		7.754367	1.608589	2.129093	0.756888	-0.011443	-0.600862	0.256818
36701		7.130325	0.815365	1.737816	0.756410	-0.002825	-0.602153	0.255437
36702		6.910867	-0.226928	0.114970	0.755596	0.006595	-0.603858	0.253745
36703		6.340228	-2.490642	-0.826465	0.754665	0.015180	-0.606040	0.250930
36704		4.766244	-4.823974	-1.423200	0.753628	0.022505	-0.608656	0.247136
36705		3.395773	-7.478345	-2.340843	0.751990	0.028632	-0.612252	0.242568
36706		3.602191	-9.290703	-2.008002	0.749628	0.033721	-0.616725	0.237846
36707		3.503298	-10.708701	-0.944612	0.746607	0.037815	-0.621686	0.233782
36708		3.355649	-10.044472	-0.351560	0.742957	0.042361	-0.626648	0.231372
36709		3.372681	-8.557381	2.477943	0.738722	0.047348	-0.631615	0.230459
36710		4.514015	-6.192480	5.492724	0.734279	0.052508	-0.636257	0.230768
36711		6.606885	-4.258502	8.539359	0.730677	0.056258	-0.640163	0.230515
36712		8.490960	-3.450865	10.317839	0.728119	0.058347	-0.643293	0.229376
36713		9.609483	-2.421766	9.458891	0.726716	0.058546	-0.645581	0.227335
36714		10.056411	-2.376608	6.873624	0.726236	0.057472	-0.647148	0.224674
36715		10.615877	-1.548759	4.487997	0.726237	0.057111	-0.647903	0.222575
36716		11.161841	1.496754	2.358194	0.726628	0.058146	-0.647988	0.220778
36717		12.058072	4.687209	0.494800	0.727759	0.059446	-0.647575	0.217899
36718		12.348180	6.186202	-1.040720	0.729890	0.060245	-0.646663	0.213208
36719		12.123493	5.489010	-1.318466	0.732688	0.060537	-0.645649	0.206498
36720		11.681971	2.923722	0.480858	0.735844	0.060687	-0.644538	0.198545
36721		10.352401	-0.355869	2.646169	0.739150	0.061243	-0.643086	0.190646
36722		9.434371	-2.597517	4.267178	0.742562	0.062534	-0.641057	0.183675
36723		9.047957	-4.149478	6.189996	0.746418	0.064273	-0.638024	0.177918
36724		9.531557	-5.052601	6.986163	0.750792	0.065509	-0.634151	0.172833
36725		9.968493	-5.284622	8.312288	0.755770	0.065841	-0.629385	0.168379
36726		10.379008	-5.005123	8.402828	0.761208	0.064829	-0.624016	0.164206
36727		11.402276	-4.675809	8.346582	0.767039	0.062873	-0.617993	0.160570
36728		11.809813	-3.944788	8.155196	0.773264	0.060399	-0.611186	0.157691
36729		11.777056	-3.196252	7.853520	0.779705	0.057953	-0.603597	0.156115
36730		12.441427	-1.016892	7.567105	0.786374	0.056219	-0.595078	0.156002
36731		12.365232	1.490924	7.654114	0.793369	0.054415	-0.585812	0.156297
36732		16.868432	3.905323	7.363606	0.800597	0.051410	-0.576208	0.156160
36733		26.580465	1.917840	5.884934	0.807422	0.049574	-0.566550	0.156950
36734		34.605384	2.421990	6.211907	0.814170	0.048062	-0.556735	0.157681
36735		29.344873	1.917628	4.770706	0.820539	0.045502	-0.547337	0.158328
36736		20.095382	-1.205448	3.996031	0.826170	0.041475	-0.538905	0.159074
36737		13.660637	-1.806815	5.124884	0.831108	0.037614	-0.530822	0.161468
36738		9.826192	-1.146887	3.992182	0.835602	0.033166	-0.522917	0.165004
36739		8.699816	-0.035043	3.511895	0.839917	0.027343	-0.514973	0.169102
36740		7.623753	0.311244	2.911486	0.844334	0.020024	-0.506577	0.173433
36741		5.439620	0.662956	2.895275	0.848941	0.012344	-0.497300	0.178436
36742		5.194349	2.552581	3.841537	0.853759	0.004846	-0.487053	0.183990
36743		8.722428	3.625996	5.126855	0.858863	-0.003305	-0.476083	0.188914
36744		11.265503	2.764649	5.317610	0.864072	-0.011661	-0.464652	0.193242
36745		12.979329	1.422506	6.169197	0.869257	-0.019856	-0.452960	0.197043
36746		12.931056	-0.644141	6.428730	0.874277	-0.028275	-0.441219	0.200416
36747		12.781537	-3.375898	6.257433	0.879093	-0.037156	-0.429418	0.203507
36748		13.065198	-5.833781	7.034614	0.883730	-0.046636	-0.417239	0.206781
36749		13.507228	-7.509091	7.702811	0.888352	-0.057083	-0.404108	0.210400
36750		13.277980	-7.425570	6.090965	0.892642	-0.067806	-0.390553	0.214619
36751		13.743774	-6.426414	5.494364	0.896402	-0.078854	-0.377208	0.218998
36752		13.796038	-4.686238	4.625485	0.899493	-0.090782	-0.364628	0.222972
36753		13.277524	-3.337744	3.309050	0.901724	-0.103934	-0.353589	0.225979
36754		12.557058	-3.009747	2.824542	0.903014	-0.118136	-0.344522	0.227846
36755		11.028833	-3.299349	2.591066	0.903430	-0.132316	-0.337462	0.228966
36756		9.594411	-4.202004	3.826019	0.903161	-0.145686	-0.332196	0.229610
36757		7.803923	-4.669072	4.995611	0.902586	-0.156848	-0.328263	0.230177
36758		5.950585	-5.090029	6.380929	0.901845	-0.165454	-0.325680	0.230723
36759		4.699892	-6.441561	7.868998	0.901204	-0.171174	-0.323920	0.231529
36760		4.128546	-8.235261	9.024495	0.900854	-0.173908	-0.322482	0.232859
36761		4.345652	-9.192022	9.060125	0.900990	-0.173307	-0.320839	0.235040
36762		4.959000	-8.992985	7.610009	0.901421	-0.170398	-0.319200	0.237730
36763		5.759589	-8.604469	6.377969	0.901881	-0.166354	-0.318032	0.240399
36764		5.908642	-8.460674	5.536673	0.902266	-0.161554	-0.317597	0.242794
36765		5.295325	-7.514141	4.996172	0.902592	-0.156344	-0.317890	0.244601
36766		3.941508	-6.688679	5.720629	0.902977	-0.150747	-0.318882	0.245401
36767		2.781043	-6.882442	6.317815	0.903472	-0.144542	-0.320548	0.245143
36768		1.915168	-7.999018	5.979281	0.904070	-0.137575	-0.322730	0.244084
36769		1.431057	-8.737313	5.291895	0.904793	-0.129245	-0.324974	0.242975
36770		1.070282	-8.662218	4.563160	0.905573	-0.119436	-0.327152	0.242165
36771		1.223560	-8.189700	4.158805	0.906275	-0.108322	-0.329452	0.241647
36772		2.381657	-6.656079	4.352431	0.906979	-0.096002	-0.331788	0.241019
36773		3.248737	-5.052466	4.150259	0.907630	-0.083563	-0.334271	0.239768
36774		3.480575	-4.376866	3.865608	0.908181	-0.071170	-0.337062	0.237762
36775		3.969272	-4.003711	4.023661	0.908640	-0.058517	-0.340059	0.235178
36776		4.606433	-2.739124	3.759480	0.909107	-0.045248	-0.342828	0.232262
36777		5.030991	-1.439903	4.023081	0.909614	-0.032293	-0.345421	0.228568
36778		5.199269	-1.370295	4.694614	0.910103	-0.019894	-0.348045	0.224010
36779		5.588548	-1.451169	4.746140	0.910603	-0.007632	-0.350372	0.219049
36780		5.460249	-1.418963	4.989281	0.911195	0.004401	-0.352107	0.213835
36781		5.234202	-1.480420	5.171476	0.911677	0.016448	-0.353651	0.208580
36782		5.928149	-0.613885	4.781187	0.912005	0.028509	-0.355058	0.203391
36783		7.027907	0.820695	4.900689	0.912220	0.040057	-0.356246	0.198339
36784		7.347864	1.868479	4.836920	0.912283	0.051494	-0.357311	0.193433
36785		7.815868	3.909349	5.423936	0.912068	0.063509	-0.358474	0.188666
36786		8.805818	5.083552	6.019428	0.911873	0.075129	-0.359473	0.183363
36787		8.799739	5.156837	5.977068	0.911726	0.086099	-0.360118	0.177924
36788		8.681116	5.668038	5.202481	0.911494	0.097193	-0.360555	0.172431
36789		8.248886	4.574518	5.100941	0.911022	0.109261	-0.360770	0.167172
36790		7.741392	3.863209	5.419994	0.910009	0.123549	-0.360728	0.162771
36791		7.141956	4.532153	6.227803	0.908475	0.139205	-0.360543	0.159073
36792		5.654332	2.884915	8.159953	0.906636	0.154207	-0.360398	0.156028
36793		5.502231	1.108179	7.359840	0.904278	0.168496	-0.360828	0.153929
36794		7.081274	0.036166	6.962996	0.902052	0.180333	-0.361103	0.152925
36795		7.359628	-0.706864	5.541374	0.900472	0.188317	-0.360833	0.153252
36796		6.875983	0.245014	3.951548	0.899691	0.191048	-0.361091	0.153852
36797		7.217453	0.414698	3.063996	0.900041	0.186786	-0.362422	0.153908
36798		8.015086	-0.970609	3.584203	0.901648	0.175377	-0.364137	0.153874
36799		7.742748	-2.028511	4.553809	0.903765	0.159025	-0.366103	0.154559
36800		7.181297	-1.232129	4.502924	0.905858	0.139193	-0.368281	0.156257
36801		6.600918	0.410557	4.841159	0.907686	0.116337	-0.370770	0.158433
36802		6.606949	1.141601	4.971646	0.909060	0.091108	-0.373520	0.160599
36803		6.879997	1.990436	4.962105	0.909755	0.064768	-0.376390	0.162733
36804		7.396178	1.855686	4.338282	0.909460	0.038064	-0.379660	0.165201
36805		7.509563	4.412786	3.982476	0.908079	0.013781	-0.383034	0.168782
36806		5.828579	23.496516	-0.809209	0.905640	0.000613	-0.386783	0.173822
36807		9.724687	25.316894	2.037755	0.903733	-0.011524	-0.391302	0.173256
36808		8.263025	-2.110636	15.194038	0.901357	-0.026891	-0.396024	0.173198
36809		7.423046	-10.879498	6.081660	0.898439	-0.036130	-0.400393	0.176599
36810		8.264283	-10.570817	9.123951	0.896046	-0.039359	-0.402256	0.183694
36811		8.473371	-4.666187	12.618711	0.893754	-0.038846	-0.403038	0.193015
36812		9.842842	-0.244666	10.044808	0.891465	-0.038986	-0.404111	0.201159
36813		9.954523	-1.254105	9.345783	0.889565	-0.041431	-0.404761	0.207669
36814		8.412855	-3.436480	7.487750	0.887823	-0.044662	-0.405308	0.213310
36815		6.888338	-5.640704	5.676457	0.886147	-0.046722	-0.405903	0.218640
36816		4.557019	-7.116776	5.205877	0.884431	-0.046695	-0.406658	0.224123
36817		3.818227	-6.814172	4.596046	0.882585	-0.044820	-0.407707	0.229802
36818		3.530305	-4.829677	5.013773	0.880928	-0.042493	-0.408509	0.235117
36819		3.460503	-4.221868	5.960541	0.879267	-0.041149	-0.409829	0.239243
36820		3.561821	-4.564676	5.379080	0.877548	-0.040705	-0.411663	0.242459
36821		3.697070	-4.822863	5.572111	0.875790	-0.040706	-0.413783	0.245189
36822		3.371571	-3.630591	4.957692	0.873976	-0.041084	-0.416091	0.247684
36823		3.795369	-2.474281	5.161587	0.872119	-0.042228	-0.418677	0.249671
36824		4.058097	-1.201572	5.536297	0.870281	-0.043940	-0.421443	0.251130
36825		3.921335	-0.969894	4.962789	0.868456	-0.045851	-0.424621	0.251753
36826		4.430366	-1.546842	4.506063	0.866772	-0.046987	-0.427961	0.251689
36827		4.540459	-2.477048	4.601824	0.865191	-0.046622	-0.431386	0.251352
36828		4.891078	-3.402805	4.569573	0.863682	-0.044429	-0.434857	0.250957
36829		5.699280	-3.797927	4.804773	0.862195	-0.040585	-0.438368	0.250611
36830		6.446432	-4.182944	5.277841	0.860713	-0.036051	-0.441858	0.250270
36831		7.064373	-4.122894	4.927091	0.859146	-0.031450	-0.445483	0.249849
36832		7.604472	-3.690854	5.075819	0.857468	-0.027317	-0.449369	0.249139
36833		8.116859	-3.318160	5.176980	0.855636	-0.024015	-0.453691	0.247940
36834		8.595534	-3.790375	4.880856	0.853655	-0.021424	-0.458405	0.246331
36835		8.885923	-3.984474	4.726223	0.851535	-0.018989	-0.463381	0.244554
36836		8.924284	-4.259385	4.527300	0.849289	-0.016505	-0.468587	0.242617
36837		8.751085	-4.575478	4.199442	0.846949	-0.013557	-0.473854	0.240740
36838		8.693115	-4.220525	3.659085	0.844527	-0.009900	-0.479161	0.238916
36839		8.621856	-3.793448	3.372507	0.841978	-0.005654	-0.484532	0.237214
36840		8.463525	-2.909012	2.796111	0.839326	-0.000981	-0.489942	0.235560
36841		8.084358	-1.991390	2.276751	0.836480	0.003713	-0.495583	0.233847
36842		7.720137	-1.542817	1.918319	0.833383	0.008010	-0.501686	0.231775
36843		7.469104	-0.345630	1.409944	0.829973	0.012820	-0.508147	0.229710
36844		7.286855	-1.228004	1.020016	0.826306	0.016759	-0.515198	0.226956
36845		5.998464	-0.655871	0.716064	0.822249	0.021192	-0.522663	0.224234
36846		5.027512	-0.320428	1.756393	0.817801	0.025682	-0.530613	0.221340
36847		3.721212	0.526005	2.212268	0.812888	0.030725	-0.539005	0.218502
36848		2.753265	1.636163	3.998198	0.807578	0.036371	-0.547708	0.215663
36849		1.670438	2.451796	5.700385	0.801909	0.042720	-0.556588	0.212899
36850		0.671893	3.206228	7.608913	0.795991	0.050028	-0.565368	0.210369
36851		0.253186	3.490554	9.218860	0.789789	0.058210	-0.574075	0.208045
36852		0.702004	3.925452	10.554970	0.783409	0.067182	-0.582540	0.205920
36853		2.021970	3.299350	12.910606	0.777287	0.075913	-0.590422	0.203627
36854		3.318404	1.959617	14.320833	0.771735	0.083986	-0.597401	0.201205
36855		4.713141	0.189124	12.037671	0.766798	0.091625	-0.603356	0.198965
36856		7.308097	-2.687606	8.554488	0.762402	0.098037	-0.608751	0.196351
36857		9.836631	-5.795995	4.266253	0.758378	0.103523	-0.613575	0.194091
36858		11.475584	-7.288117	1.323671	0.754057	0.109365	-0.618058	0.193500
36859		11.456501	-4.676609	1.319971	0.749371	0.116526	-0.622005	0.194872
36860		10.158358	-0.698861	4.178375	0.744621	0.123802	-0.625827	0.196350
36861		9.354678	0.725538	6.674147	0.740337	0.129003	-0.629835	0.196383
36862		9.959940	0.295674	7.448306	0.737236	0.131502	-0.633484	0.194648
36863		11.913616	-1.143090	6.816388	0.735349	0.132553	-0.636130	0.192432
36864		11.770689	-0.587218	5.342125	0.734269	0.134026	-0.637523	0.190919
36865		11.203789	0.628489	3.816168	0.733507	0.135526	-0.638461	0.189649
36866		10.684716	2.001552	2.721594	0.733100	0.137110	-0.638967	0.188379
36867		10.571066	1.992624	2.225128	0.733008	0.138332	-0.639324	0.186622
36868		10.998792	1.244848	2.345619	0.733037	0.139888	-0.639377	0.185162
36869		10.252068	1.803078	2.416774	0.733228	0.142155	-0.638985	0.184030
36870		9.871146	1.856790	2.157421	0.733412	0.145282	-0.638239	0.183441
36871		9.550343	2.888407	1.668618	0.733697	0.149448	-0.636976	0.183348
36872		9.028408	3.678720	1.015640	0.733824	0.154390	-0.635683	0.183232
36873		9.324794	4.246045	0.935043	0.734047	0.159569	-0.634294	0.182711
36874		8.845844	4.519301	-0.095573	0.734200	0.164951	-0.633017	0.181743
36875		9.084896	5.073911	-0.485236	0.734594	0.170009	-0.631801	0.179710
36876		8.964740	0.635278	-0.335029	0.735704	0.173005	-0.630731	0.176031
36877		8.863205	-3.645136	0.720631	0.736792	0.175431	-0.629689	0.172779
36878		8.964360	-4.063088	1.353925	0.737457	0.178208	-0.628662	0.170832
36879		9.849535	-3.707663	2.808559	0.738357	0.179904	-0.627584	0.169119
36880		10.705406	-4.007299	3.755250	0.739811	0.179695	-0.626479	0.167076
36881		11.326335	-3.963888	3.761039	0.741659	0.178096	-0.625301	0.164992
36882		12.104262	-3.327418	2.803115	0.743633	0.175845	-0.624067	0.163184
36883		12.920926	-2.382117	2.033706	0.745718	0.173270	-0.622685	0.161696
36884		13.721005	-1.012860	1.909243	0.747836	0.171063	-0.621029	0.160630
36885		14.244854	0.117762	1.719506	0.750109	0.169335	-0.618956	0.159864
36886		14.407944	1.060226	1.780939	0.752554	0.167948	-0.616535	0.159186
36887		14.371454	1.719450	1.529942	0.755110	0.166888	-0.613872	0.158490
36888		13.897719	2.088108	1.412936	0.757776	0.166091	-0.611012	0.157652
36889		13.228914	2.157240	0.928610	0.760378	0.165544	-0.608164	0.156708
36890		12.846969	1.881112	0.636566	0.762902	0.165504	-0.605241	0.155793
36891		12.460429	1.780044	0.504774	0.765298	0.165876	-0.602281	0.155120
36892		12.477082	1.646543	0.380626	0.767505	0.166499	-0.599395	0.154726
36893		12.088211	1.422327	0.757326	0.769703	0.167197	-0.596418	0.154558
36894		11.326787	1.348449	0.636279	0.771913	0.167946	-0.593327	0.154620
36895		10.750474	1.472614	0.190307	0.774085	0.168290	-0.590409	0.154556
36896		10.869059	1.293514	0.466218	0.776316	0.167972	-0.587683	0.154102
36897		10.654924	0.835434	0.987923	0.778618	0.166968	-0.585118	0.153337
36898		10.587515	-0.013980	1.117821	0.780833	0.165630	-0.582713	0.152681
36899		10.376524	-0.149538	1.078665	0.782889	0.164513	-0.580309	0.152516
36900		10.291217	-0.061700	0.684059	0.784704	0.163483	-0.578103	0.152675
36901		10.518927	-0.103141	0.533416	0.786337	0.162494	-0.576074	0.152999
36902		10.839159	-0.108643	0.508928	0.787777	0.161521	-0.574226	0.153569
36903		10.984842	0.384412	1.135786	0.789136	0.160305	-0.572550	0.154121
36904		10.749653	0.666617	1.652910	0.790542	0.158647	-0.570961	0.154525
36905		10.755122	0.834441	1.538430	0.791937	0.156596	-0.569536	0.154734
36906		11.029563	1.050753	1.538894	0.793280	0.154326	-0.568251	0.154854
36907		10.953667	0.914130	1.603481	0.794538	0.151784	-0.567203	0.154759
36908		10.932195	0.856004	1.794174	0.795670	0.149219	-0.566311	0.154707
36909		10.614113	1.078318	2.016847	0.796702	0.146677	-0.565558	0.154582
36910		10.313188	0.981260	2.491468	0.797693	0.144009	-0.564913	0.154339
36911		10.050797	0.548147	2.651622	0.798519	0.141323	-0.564471	0.154167
36912		9.851704	0.188388	2.785949	0.799157	0.138810	-0.564164	0.154267
36913		9.567020	0.130367	2.954751	0.799590	0.136593	-0.563953	0.154772
36914		9.462734	0.403874	3.253104	0.799881	0.134571	-0.563819	0.155526
36915		9.351981	0.571485	3.670204	0.800135	0.132465	-0.563727	0.156363
36916		9.001247	0.631284	3.989934	0.800379	0.130189	-0.563650	0.157299
36917		8.543152	0.683080	4.165748	0.800599	0.127761	-0.563600	0.158344
36918		8.309120	0.848466	4.511005	0.800870	0.125205	-0.563492	0.159402
36919		7.893170	0.913694	4.755994	0.801215	0.122421	-0.563300	0.160504
36920		7.448115	0.762249	4.923962	0.801665	0.119473	-0.562957	0.161675
36921		7.205510	0.734346	4.848546	0.802131	0.116309	-0.562543	0.163104
36922		7.115553	0.888962	4.694867	0.802629	0.112657	-0.562087	0.164784
36923		7.335014	1.230749	4.791952	0.803172	0.108300	-0.561613	0.166662
36924		7.828277	1.510579	5.203821	0.803899	0.103046	-0.561000	0.168543
36925		8.507636	1.427241	5.937124	0.804853	0.096948	-0.560161	0.170388
36926		8.943350	1.183575	6.297929	0.806028	0.090447	-0.558946	0.172388
36927		9.331821	0.869943	6.524281	0.807389	0.083867	-0.557311	0.174623
36928		9.562490	0.514195	6.445339	0.808876	0.077421	-0.555262	0.177228
36929		9.701616	0.127854	6.056515	0.810466	0.071243	-0.552822	0.180160
36930		9.580771	-0.365183	5.914110	0.812053	0.065411	-0.550069	0.183620
36931		9.444678	-0.875562	6.106201	0.813713	0.059601	-0.546986	0.187414
36932		9.196595	-1.314577	5.857994	0.815366	0.053821	-0.543585	0.191824
36933		9.330631	-1.925719	6.029492	0.817191	0.047510	-0.539821	0.196304
36934		9.442211	-2.558195	6.374560	0.819108	0.040911	-0.535632	0.201213
36935		9.466324	-2.421259	5.829953	0.821369	0.033561	-0.530892	0.205864
36936		9.660225	-2.035863	5.586176	0.823792	0.025457	-0.525759	0.210467
36937		9.456388	-1.864164	5.461757	0.826575	0.015927	-0.520276	0.214086
36938		8.901078	-2.277993	5.312957	0.829397	0.005357	-0.514654	0.217263
36939		8.405134	-2.780243	4.148718	0.832244	-0.006011	-0.508966	0.219744
36940		8.588381	-2.542992	3.323380	0.834830	-0.017130	-0.503326	0.222323
36941		8.865107	-2.973324	3.744131	0.837445	-0.028890	-0.497665	0.224009
36942		8.595117	-3.871565	3.200565	0.839825	-0.040642	-0.491957	0.225879
36943		8.606486	-4.828991	3.579393	0.842088	-0.053295	-0.486311	0.227042
36944		8.441735	-3.823783	4.675781	0.844187	-0.065224	-0.480385	0.228744
36945		8.441790	-1.705439	5.043317	0.846469	-0.076745	-0.474162	0.229720
36946		8.647170	-1.556951	4.814382	0.848517	-0.087986	-0.468197	0.230369
36947		9.057752	-2.738929	4.574355	0.850658	-0.098421	-0.462176	0.230407
36948		9.183814	-3.351249	4.415513	0.852784	-0.106509	-0.455992	0.231272
36949		9.081188	-3.873578	4.486458	0.855129	-0.112985	-0.449713	0.231832
36950		9.151152	-4.011292	4.770388	0.857424	-0.117568	-0.443555	0.232939
36951		8.782841	-4.234689	5.491915	0.859928	-0.121540	-0.437505	0.233113
36952		8.429513	-5.300514	5.687598	0.862227	-0.124901	-0.431842	0.233402
36953		8.046949	-6.074343	5.765925	0.864698	-0.127998	-0.426244	0.232872
36954		7.844745	-6.444013	5.968641	0.866985	-0.130066	-0.420969	0.232820
36955		7.730243	-6.356449	5.978627	0.869386	-0.132133	-0.415837	0.231922
36956		7.424900	-6.622702	6.013248	0.871491	-0.133709	-0.411165	0.231448
36957		7.208913	-6.686319	6.215435	0.873524	-0.135120	-0.406713	0.230830
36958		7.006512	-6.492863	6.321526	0.875475	-0.136261	-0.402532	0.230095
36959		6.699387	-6.649879	6.217366	0.877324	-0.137255	-0.398641	0.229236
36960		6.523765	-6.498657	6.396361	0.879118	-0.137773	-0.394994	0.228364
36961		6.308907	-6.429054	6.534936	0.880876	-0.137763	-0.391546	0.227532
36962		6.155945	-5.978987	6.673429	0.882647	-0.137202	-0.388212	0.226719
36963		5.883615	-5.806176	6.773106	0.884398	-0.136149	-0.385030	0.225955
36964		5.887749	-5.583133	6.815800	0.886150	-0.134490	-0.382024	0.225184
36965		6.051046	-5.702317	6.695309	0.887896	-0.132250	-0.379124	0.224534
36966		6.201319	-5.181145	6.656135	0.889676	-0.129251	-0.376281	0.224018
36967		6.308725	-4.860527	6.614602	0.891421	-0.125880	-0.373584	0.223514
36968		6.358493	-4.528448	6.506040	0.893128	-0.122277	-0.371066	0.222893
36969		6.392755	-4.516558	6.500561	0.894759	-0.118562	-0.368759	0.222185
36970		6.485320	-4.344120	6.427739	0.896319	-0.114627	-0.366661	0.221433
36971		6.473788	-4.237160	6.643144	0.897801	-0.110563	-0.364748	0.220652
36972		6.539065	-4.222821	6.658892	0.899202	-0.106290	-0.363037	0.219870
36973		6.730424	-4.070073	6.658540	0.900515	-0.101754	-0.361483	0.219201
36974		6.922641	-3.681549	6.738266	0.901768	-0.096966	-0.360067	0.218550
36975		7.067026	-3.432197	6.860908	0.902913	-0.092085	-0.358857	0.217923
36976		7.313720	-3.424675	6.790288	0.903956	-0.087114	-0.357824	0.217338
36977		7.586492	-3.047785	7.044011	0.904915	-0.081934	-0.356957	0.216787
36978		7.831203	-2.589729	7.045002	0.905772	-0.076826	-0.356262	0.216224
36979		7.835710	-2.678206	7.321911	0.906498	-0.071950	-0.355841	0.215550
36980		7.784216	-2.577686	7.384963	0.907147	-0.067148	-0.355513	0.214909
36981		7.629991	-2.295975	7.446602	0.907732	-0.062406	-0.355299	0.214219
36982		7.453480	-2.166682	7.339766	0.908257	-0.057792	-0.355197	0.213457
36983		7.283952	-2.043582	7.038305	0.908743	-0.053290	-0.355167	0.212607
36984		7.006937	-2.015261	6.927403	0.909189	-0.048920	-0.355226	0.211652
36985		6.772715	-2.321339	6.795795	0.909605	-0.044566	-0.355309	0.210682
36986		6.582032	-2.526745	6.478497	0.909965	-0.040140	-0.355488	0.209714
36987		6.469883	-2.556362	6.554881	0.910261	-0.035629	-0.355757	0.208786
36988		6.438707	-2.533959	6.473375	0.910524	-0.031209	-0.356091	0.207779
36989		6.490280	-2.475817	6.711612	0.910789	-0.026986	-0.356418	0.206644
36990		6.434043	-2.718915	6.859433	0.911092	-0.023188	-0.356732	0.205223
36991		6.705819	-2.921415	6.488779	0.911394	-0.019762	-0.357142	0.203518
36992		6.907227	-2.996721	6.437519	0.911719	-0.016526	-0.357559	0.201611
36993		6.940213	-2.785677	6.472336	0.912040	-0.013242	-0.358022	0.199567
36994		7.020407	-2.338120	6.607816	0.912396	-0.009872	-0.358467	0.197328
36995		7.178983	-2.191892	6.720366	0.912797	-0.006543	-0.358892	0.194819
36996		7.284839	-2.146265	6.388877	0.913296	-0.003337	-0.359182	0.192012
36997		7.092274	-2.220282	6.023370	0.913840	-0.000105	-0.359401	0.189015
36998		7.020468	-2.238081	5.951903	0.914401	0.003276	-0.359644	0.185785
36999		6.918101	-1.996513	5.879261	0.914963	0.006812	-0.359874	0.182448
37000		6.917206	-1.745153	6.049092	0.915545	0.010361	-0.360066	0.178945
37001		7.058446	-1.414356	6.041196	0.916148	0.013945	-0.360178	0.175355
37002		7.110048	-1.053244	5.725742	0.916769	0.017673	-0.360209	0.171675
37003		7.212173	-0.793239	5.787282	0.917347	0.021683	-0.360263	0.167974
37004		7.398749	-0.344931	5.627537	0.917885	0.026200	-0.360293	0.164283
37005		7.666045	-0.057237	5.919881	0.918369	0.031090	-0.360337	0.160593
37006		8.105673	0.293874	6.093835	0.918788	0.036266	-0.360418	0.156884
37007		8.146296	0.303375	6.032981	0.919123	0.041536	-0.360585	0.153184
37008		8.017622	-0.072823	5.680346	0.919323	0.047408	-0.360843	0.149632
37009		8.179297	-0.263131	5.541664	0.919271	0.054358	-0.361302	0.146445
37010		8.395311	0.089726	5.496820	0.918958	0.062448	-0.361885	0.143722
37011		8.537179	1.000390	5.406552	0.918430	0.071116	-0.362595	0.141257
37012		8.447683	1.431528	5.282203	0.917752	0.079524	-0.363583	0.138614
37013		8.554121	1.437307	5.017079	0.916930	0.087451	-0.364917	0.135750
37014		8.513318	1.171261	4.840600	0.915996	0.094869	-0.366504	0.132763
37015		8.524185	1.031802	4.675912	0.914894	0.101916	-0.368433	0.129765
37016		8.721273	0.815436	4.808765	0.913680	0.108460	-0.370598	0.126813
37017		8.949021	0.919855	4.839657	0.912321	0.114539	-0.373043	0.124059
37018		9.082652	0.969538	5.265396	0.910872	0.119941	-0.375740	0.121433
37019		9.379870	0.829928	5.856319	0.909328	0.124808	-0.378651	0.119032
37020		9.670749	1.297714	5.897647	0.907787	0.129072	-0.381620	0.116746
37021		9.949744	1.526760	5.231127	0.906185	0.132751	-0.384785	0.114659
37022		9.760919	1.493889	4.925160	0.904584	0.136054	-0.387940	0.112785
37023		9.178011	1.979609	4.306609	0.902841	0.139107	-0.391387	0.111103
37024		8.765538	1.965379	4.074856	0.901055	0.141537	-0.395074	0.109472
37025		8.051020	1.449971	3.303195	0.899062	0.143757	-0.399135	0.108229
37026		7.688601	1.531146	2.591814	0.896803	0.146034	-0.403595	0.107372
37027		7.119590	1.318664	2.422713	0.894301	0.148165	-0.408460	0.106927
37028		6.660136	1.424727	1.666287	0.891497	0.150225	-0.413817	0.106865
37029		6.566454	1.349455	1.943414	0.888457	0.151979	-0.419617	0.107093
37030		5.875669	1.286935	1.420778	0.885146	0.153609	-0.425803	0.107758
37031		5.722536	1.211430	1.338993	0.881540	0.154935	-0.432501	0.108746
37032		5.141449	1.160981	1.322879	0.877665	0.156159	-0.439518	0.110194
37033		4.825535	1.535552	1.526461	0.873422	0.157137	-0.447111	0.111950
37034		4.421070	1.719454	1.887399	0.868973	0.157803	-0.454954	0.114018
37035		4.471811	1.993576	2.139969	0.864294	0.157818	-0.463261	0.116099
37036		4.362803	1.858477	2.508243	0.859465	0.157335	-0.471751	0.118389
37037		4.401905	1.819813	2.826646	0.854444	0.156250	-0.480550	0.120759
37038		4.044767	1.921662	3.058067	0.849243	0.154767	-0.489541	0.123215
37039		3.508576	1.701525	3.664205	0.843799	0.152784	-0.498868	0.125662
37040		2.848856	1.638446	4.355434	0.838123	0.150336	-0.508475	0.128075
37041		1.926796	1.492883	5.156442	0.832251	0.147496	-0.518225	0.130563
37042		0.910979	1.594871	6.242774	0.826236	0.144220	-0.528052	0.133027
37043		-0.132274	2.033549	7.569920	0.820070	0.140584	-0.537938	0.135444
37044		-0.824462	2.587366	9.307866	0.813899	0.136431	-0.547730	0.137651
37045		-1.037816	2.971176	10.726064	0.807787	0.131568	-0.557405	0.139532
37046		-0.757915	2.863809	11.433945	0.801845	0.125469	-0.566965	0.140899
37047		-0.139151	3.386226	13.086219	0.796165	0.118318	-0.576216	0.141766
37048		0.573250	3.517213	13.911868	0.791048	0.110032	-0.584784	0.141998
37049		2.223049	2.799204	13.498310	0.786396	0.100796	-0.592790	0.141497
37050		4.190405	1.710218	10.990714	0.782040	0.091808	-0.600070	0.141068
37051		7.095949	-0.056166	7.853841	0.777754	0.083489	-0.606886	0.140774
37052		10.026705	-3.061122	4.500663	0.773380	0.076023	-0.613282	0.141380
37053		11.981333	-5.907592	0.538587	0.768171	0.070881	-0.619568	0.145000
37054		12.374405	-4.007672	-0.355678	0.762348	0.068965	-0.625266	0.152027
37055		10.612672	1.084130	3.705157	0.756426	0.068361	-0.630411	0.160401
37056		9.068499	4.643582	7.999813	0.751369	0.065701	-0.635078	0.166744
37057		8.952798	3.889854	9.306679	0.747738	0.059270	-0.639167	0.169825
37058		10.522816	1.033531	8.357776	0.745343	0.050461	-0.642396	0.171010
37059		11.284107	-2.164182	6.719508	0.743814	0.041104	-0.644535	0.172122
37060		10.883861	-3.305539	5.490953	0.742746	0.033262	-0.645475	0.174882
37061		10.002552	-2.117755	3.991650	0.742119	0.027207	-0.645234	0.179425
37062		9.854354	-0.523428	3.084208	0.742034	0.021268	-0.644238	0.184094
37063		9.944978	-0.044000	2.840282	0.742528	0.014295	-0.642831	0.187659
37064		9.797272	-0.902192	2.666122	0.743123	0.006344	-0.641500	0.190279
37065		9.546005	-1.157593	3.172856	0.743855	-0.002198	-0.640017	0.192493
37066		8.934182	-1.298063	2.978496	0.744748	-0.010953	-0.638301	0.194428
37067		9.331523	-2.434904	3.506488	0.745816	-0.019820	-0.636209	0.196479
37068		9.067678	-2.637365	3.219507	0.747221	-0.028514	-0.633447	0.198979
37069		8.797209	-3.064650	3.135655	0.748539	-0.036938	-0.630482	0.202032
37070		9.041227	-2.777331	3.852465	0.750217	-0.045058	-0.626796	0.205600
37071		8.597346	-3.427476	3.893093	0.751845	-0.053808	-0.622989	0.209089
37072		9.481075	-4.031466	4.811347	0.753731	-0.062383	-0.618581	0.212971
37073		9.452406	-4.698245	5.413387	0.756123	-0.070490	-0.613180	0.217530
37074		9.663839	-4.649260	5.535888	0.758822	-0.078168	-0.607035	0.222682
37075		9.695351	-4.438981	4.634527	0.761785	-0.086774	-0.600465	0.227148
37076		10.200042	-4.398433	3.592458	0.764797	-0.096654	-0.593721	0.230738
37077		10.413166	-5.000000	3.833001	0.767832	-0.108251	-0.586897	0.232952
37078		10.640952	-6.100832	4.410717	0.770849	-0.120798	-0.579920	0.234293
37079		10.577214	-7.895853	3.921170	0.773813	-0.133080	-0.572717	0.235581
37080		10.869063	-8.824867	3.455819	0.776961	-0.143092	-0.564910	0.238187
37081		10.881502	-8.634621	2.736231	0.780533	-0.150281	-0.556302	0.242304
37082		10.990254	-7.354509	2.493666	0.784548	-0.155488	-0.547055	0.247059
37083		10.940911	-7.019932	2.247274	0.788783	-0.160766	-0.537587	0.250949
37084		11.013648	-7.071411	2.620722	0.793055	-0.166870	-0.528182	0.253459
37085		10.726130	-8.509154	2.662952	0.797077	-0.174242	-0.519157	0.254529
37086		10.503308	-9.425740	2.893416	0.800969	-0.181716	-0.510321	0.254954
37087		10.296913	-10.028963	2.779444	0.804654	-0.188946	-0.501765	0.255077
37088		10.422375	-9.966091	3.515366	0.808278	-0.195625	-0.493375	0.254949
37089		10.238268	-10.235233	3.339131	0.811672	-0.202105	-0.485377	0.254463
37090		10.299352	-9.871263	3.674917	0.814979	-0.207949	-0.477735	0.253644
37091		10.303234	-9.929641	3.186251	0.818105	-0.213149	-0.470666	0.252479
37092		10.500319	-9.909642	3.478140	0.821250	-0.217183	-0.463967	0.251226
37093		10.047037	-10.036516	3.532931	0.824326	-0.220104	-0.457710	0.250084
37094		9.656885	-9.666035	3.710730	0.827457	-0.221561	-0.451831	0.249148
37095		9.179024	-9.451217	3.633103	0.830541	-0.221976	-0.446451	0.248212
37096		9.054222	-9.344297	3.570398	0.833566	-0.221535	-0.441523	0.247279
37097		8.811042	-8.559560	4.369625	0.836624	-0.220110	-0.436891	0.246449
37098		8.255282	-7.500358	4.645827	0.839645	-0.218055	-0.432667	0.245455
37099		7.696082	-7.254709	4.522819	0.842510	-0.215699	-0.428975	0.244195
37100		7.298590	-6.865230	4.706246	0.845368	-0.212690	-0.425622	0.242820
37101		6.891887	-6.681459	4.846960	0.848178	-0.209133	-0.422595	0.241395
37102		6.504460	-6.543142	4.771136	0.850955	-0.205000	-0.419783	0.240069
37103		6.205152	-5.942483	5.050567	0.853688	-0.200388	-0.417166	0.238817
37104		5.891368	-5.542706	5.199506	0.856360	-0.195563	-0.414714	0.237519
37105		5.698212	-5.439740	5.357585	0.858900	-0.190710	-0.412483	0.236173
37106		5.572056	-5.391217	5.409299	0.861388	-0.185607	-0.410321	0.234944
37107		5.739834	-5.006731	5.652175	0.863812	-0.180211	-0.408210	0.233918
37108		5.872665	-4.730458	5.980882	0.866142	-0.174854	-0.406171	0.232917
37109		6.171079	-4.763579	6.136748	0.868412	-0.169481	-0.404091	0.232050
37110		6.251380	-4.703031	6.088731	0.870657	-0.163993	-0.401924	0.231343
37111		6.348279	-4.581523	6.278162	0.872824	-0.158649	-0.399712	0.230734
37112		6.366660	-4.427674	6.602968	0.874954	-0.153267	-0.397434	0.230241
37113		6.815325	-4.192935	7.157652	0.877070	-0.148003	-0.395020	0.229788
37114		7.036962	-3.902920	7.020774	0.879151	-0.143079	-0.392520	0.229238
37115		7.501746	-4.207573	6.853461	0.881168	-0.138568	-0.390026	0.228522
37116		7.733815	-4.116866	6.674613	0.883101	-0.134162	-0.387601	0.227814
37117		7.902036	-3.922463	6.769759	0.884970	-0.129918	-0.385183	0.227120
37118		7.776405	-3.404440	6.808703	0.886776	-0.125885	-0.382835	0.226316
37119		7.535814	-3.421950	6.853420	0.888486	-0.122091	-0.380638	0.225390
37120		7.374807	-3.377559	7.005458	0.890139	-0.118310	-0.378561	0.224380
37121		7.300846	-3.591924	7.143986	0.891728	-0.114529	-0.376573	0.223377
37122		7.387140	-3.951720	7.035234	0.893232	-0.110632	-0.374716	0.222450
37123		7.593026	-4.006172	6.933451	0.894675	-0.106447	-0.372899	0.221746
37124		7.846492	-3.893092	6.854299	0.896045	-0.102138	-0.371184	0.221120
37125		8.031513	-3.561133	6.752923	0.897308	-0.097849	-0.369647	0.220509
37126		8.070609	-3.376003	6.997931	0.898489	-0.093787	-0.368282	0.219750
37127		7.894845	-3.015665	7.030979	0.899594	-0.089967	-0.367071	0.218849
37128		7.698052	-2.898157	7.141964	0.900629	-0.086261	-0.366069	0.217761
37129		7.717471	-2.233579	6.707349	0.901660	-0.082241	-0.365182	0.216537
37130		7.739776	-2.805984	6.724207	0.902669	-0.078408	-0.364473	0.214943
37131		7.630626	-3.500193	6.411531	0.903704	-0.073984	-0.363770	0.213348
37132		7.693927	-3.673036	6.491669	0.904782	-0.068937	-0.363000	0.211774
37133		7.687026	-3.406285	6.159390	0.905820	-0.063557	-0.362351	0.210123
37134		7.738653	-3.435445	6.391725	0.906825	-0.058147	-0.361844	0.208221
37135		7.721589	-3.005541	6.215106	0.907828	-0.052378	-0.361381	0.206177
37136		7.681376	-3.132833	6.297681	0.908892	-0.046583	-0.360953	0.203614
37137		7.312635	-3.689539	5.872633	0.909977	-0.040221	-0.360566	0.200788
37138		7.083119	-3.295824	5.570539	0.911075	-0.032338	-0.360235	0.197806
37139		6.840624	-3.359264	5.558431	0.912101	-0.022469	-0.360117	0.194633
37140		7.247843	-3.140440	5.565227	0.912916	-0.009706	-0.360227	0.191642
37141		7.508246	-2.120134	5.104982	0.913431	0.005578	-0.360430	0.188953
37142		7.891111	-1.198065	5.420461	0.913595	0.022176	-0.360769	0.186273
37143		8.045123	-0.631612	6.139635	0.913489	0.038728	-0.361100	0.183424
37144		8.043820	0.852928	6.957054	0.913222	0.054812	-0.361271	0.180293
37145		7.918252	2.933722	7.389038	0.912955	0.069841	-0.361250	0.176448
37146		7.621054	3.102989	7.018137	0.912840	0.082925	-0.361126	0.171567
37147		7.324578	1.613005	5.746348	0.912702	0.094503	-0.361134	0.166214
37148		7.000193	-0.083508	5.190098	0.912486	0.104670	-0.361277	0.160913
37149		6.521248	-1.326783	4.958017	0.912066	0.113757	-0.361575	0.156391
37150		5.706933	-1.424691	4.746458	0.911478	0.121704	-0.361911	0.153023
37151		5.467067	-0.770704	4.482592	0.910808	0.127750	-0.362488	0.150702
37152		5.573959	0.156375	4.339749	0.910183	0.131334	-0.363355	0.149301
37153		5.861449	1.148926	4.318162	0.909679	0.132221	-0.364588	0.148587
37154		6.017059	1.369574	4.978211	0.909341	0.130547	-0.366053	0.148532
37155		6.291921	1.919309	5.082825	0.909060	0.127140	-0.367575	0.149448
37156		6.629755	2.814838	5.319587	0.908907	0.122241	-0.368846	0.151323
37157		6.655564	3.365332	5.697760	0.908788	0.115624	-0.370142	0.154046
37158		7.113916	3.230429	5.812622	0.908778	0.107150	-0.371307	0.157392
37159		6.980234	2.702273	5.601499	0.908755	0.097390	-0.372292	0.161487
37160		6.913685	2.574513	5.504518	0.908623	0.087172	-0.372964	0.166445
37161		6.749088	2.959407	5.853206	0.908340	0.076719	-0.373389	0.172088
37162		6.628542	2.794927	5.893457	0.907939	0.065503	-0.373671	0.178119
37163		6.696332	2.931804	5.868203	0.907348	0.053540	-0.373907	0.184517
37164		6.623688	3.033719	5.960580	0.906608	0.040005	-0.374367	0.190556
37165		6.363485	2.210826	5.844286	0.905725	0.024834	-0.375009	0.195992
37166		6.072217	0.636229	6.254844	0.904552	0.008603	-0.375833	0.201150
37167		5.585300	-0.164170	6.083983	0.903006	-0.006831	-0.376641	0.206578
37168		5.247625	-0.807072	6.217936	0.901166	-0.020743	-0.377427	0.212178
37169		5.152181	-1.829613	6.177337	0.899229	-0.032190	-0.378003	0.217864
37170		4.775635	-2.923636	5.588606	0.897321	-0.040268	-0.378368	0.223679
37171		4.309116	-3.983988	5.131690	0.895564	-0.044485	-0.378611	0.229432
37172		4.213200	-4.550691	4.967316	0.894147	-0.044714	-0.378467	0.235087
37173		3.986562	-5.423381	5.414197	0.892922	-0.042206	-0.378322	0.240378
37174		4.280399	-5.907326	5.863703	0.891812	-0.038057	-0.378273	0.245219
37175		4.326498	-5.690051	6.899688	0.890883	-0.033711	-0.378290	0.249174
37176		4.665608	-5.448683	8.233935	0.890088	-0.030244	-0.378570	0.252020
37177		5.159747	-4.672366	8.558509	0.889389	-0.028119	-0.379309	0.253615
37178		6.053461	-4.652275	8.707268	0.888792	-0.027556	-0.380547	0.253916
37179		7.161578	-4.949358	8.882435	0.888261	-0.028092	-0.382199	0.253233
37180		8.107154	-5.186516	8.955602	0.887828	-0.028877	-0.383978	0.251969
37181		8.583419	-5.297158	8.387768	0.887419	-0.029073	-0.385802	0.250596
37182		9.078728	-5.019235	7.577836	0.887022	-0.027868	-0.387550	0.249439
37183		9.187280	-4.092057	6.568726	0.886612	-0.025010	-0.389256	0.248543
37184		9.166202	-3.173854	5.410121	0.886149	-0.021004	-0.391060	0.247732
37185		9.332622	-2.018817	4.971590	0.885629	-0.016361	-0.393042	0.246803
37186		8.912848	-1.271151	4.791399	0.885077	-0.011729	-0.395278	0.245472
37187		8.670285	-1.292852	4.434999	0.884467	-0.007374	-0.397840	0.243695
37188		8.269473	-1.541999	3.785399	0.883778	-0.003330	-0.400675	0.241629
37189		8.058067	-2.092555	3.599514	0.882951	0.000377	-0.403899	0.239297
37190		7.843981	-2.415566	3.321923	0.882002	0.003926	-0.407318	0.236957
37191		7.596677	-2.587268	3.185653	0.880912	0.007251	-0.410970	0.234618
37192		7.420099	-2.881824	3.134249	0.879649	0.010330	-0.414873	0.232362
37193		7.319414	-3.047343	3.337542	0.878154	0.013234	-0.419048	0.230367
37194		7.127882	-2.557200	3.296583	0.876479	0.015973	-0.423347	0.228706
37195		6.749615	-1.980123	2.940997	0.874548	0.018250	-0.427997	0.227267
37196		6.776164	-1.400996	3.125108	0.872418	0.020047	-0.432934	0.225949
37197		6.564177	-0.618791	2.939160	0.870081	0.021402	-0.438161	0.224756
37198		6.493219	-0.215208	2.835970	0.867561	0.022220	-0.443727	0.223496
37199		6.388078	-0.104104	2.945543	0.864818	0.022704	-0.449639	0.222259
37200		6.014600	0.078614	2.783577	0.861878	0.022987	-0.455851	0.220992
37201		5.489529	-0.172983	3.019743	0.858729	0.023003	-0.462392	0.219657
37202		4.761418	-0.436682	2.691232	0.855294	0.022772	-0.469363	0.218293
37203		4.285917	-0.537394	3.379159	0.851578	0.022354	-0.476734	0.216887
37204		3.592129	-0.676968	3.556245	0.847594	0.021735	-0.484421	0.215518
37205		3.000311	-0.352050	4.247746	0.843340	0.021017	-0.492446	0.214085
37206		2.179964	0.030946	4.839707	0.838867	0.020064	-0.500745	0.212496
37207		1.449594	0.469310	5.668739	0.834172	0.018949	-0.509343	0.210634
37208		0.752782	0.973384	6.651716	0.829305	0.017666	-0.518172	0.208421
37209		0.520145	1.141268	7.643065	0.824316	0.016268	-0.527115	0.205883
37210		0.553787	1.376334	8.611560	0.819234	0.014900	-0.536087	0.203086
37211		0.927832	1.121640	9.274497	0.814060	0.013846	-0.544992	0.200245
37212		1.931231	0.733886	10.398547	0.808877	0.013287	-0.553641	0.197542
37213		2.913777	0.105561	11.386873	0.803766	0.013161	-0.561924	0.195006
37214		4.302403	-1.688436	11.303524	0.798811	0.013217	-0.569723	0.192722
37215		5.729086	-4.033405	9.231684	0.793904	0.013620	-0.577047	0.191176
37216		7.638316	-5.336247	6.802530	0.789039	0.014623	-0.583812	0.190702
37217		8.900115	-5.604373	5.158313	0.784202	0.016065	-0.590041	0.191365
37218		9.984406	-4.958469	4.019274	0.779270	0.017676	-0.595984	0.192951
37219		10.326232	-2.398404	3.487726	0.774523	0.019180	-0.601438	0.194982
37220		9.928902	0.578790	4.709583	0.770196	0.019338	-0.606686	0.195847
37221		9.692806	1.824956	6.195277	0.766489	0.017355	-0.611795	0.194679
37222		9.406686	1.088569	6.443325	0.763447	0.013435	-0.616614	0.191718
37223		9.871691	-0.590927	6.333950	0.760873	0.008938	-0.620979	0.188088
37224		10.358165	-1.936786	5.463260	0.758731	0.004976	-0.624656	0.184683
37225		10.605426	-2.509104	5.016433	0.756895	0.002420	-0.627572	0.182364
37226		10.777304	-2.894015	4.361266	0.755355	0.001379	-0.629718	0.181362
37227		10.531274	-2.168486	3.595822	0.753963	0.001551	-0.631411	0.181266
37228		10.305456	-1.783535	3.795446	0.752889	0.002203	-0.632608	0.181551
37229		9.990800	-1.722445	3.550132	0.751849	0.002907	-0.633760	0.181832
37230		9.916481	-2.055393	3.591436	0.750834	0.003725	-0.634836	0.182257
37231		10.082134	-2.001237	4.027170	0.749983	0.004628	-0.635613	0.183031
37232		9.576521	-1.954095	3.914424	0.749285	0.005429	-0.636155	0.183981
37233		9.447247	-1.974238	3.647142	0.748753	0.005729	-0.636489	0.184981
37234		9.498590	-1.865004	3.549715	0.748426	0.005610	-0.636582	0.185987
37235		9.352699	-2.248206	3.407648	0.748145	0.005319	-0.636601	0.187054
37236		9.181999	-2.350127	3.465390	0.747897	0.005129	-0.636478	0.188468
37237		9.465404	-2.240740	3.758798	0.747747	0.005184	-0.636033	0.190551
37238		8.753895	-1.824536	3.455359	0.747922	0.004764	-0.635234	0.192530
37239		9.123219	-2.400276	3.205350	0.748420	0.003628	-0.634173	0.194108
37240		9.468417	-1.747428	3.039739	0.749279	0.002638	-0.632590	0.195967
37241		9.078459	-2.280087	2.242660	0.750328	0.001102	-0.630912	0.197375
37242		9.870002	-2.291922	2.377479	0.751565	-0.000591	-0.629023	0.198697
37243		9.756999	-2.537356	2.353868	0.753170	-0.002280	-0.626758	0.199760
37244		10.130956	-3.032432	2.526826	0.754886	-0.003668	-0.624305	0.200940
37245		10.720230	-3.090010	2.823021	0.756751	-0.004858	-0.621603	0.202271
37246		10.768836	-3.176754	2.885141	0.758901	-0.006123	-0.618523	0.203621
37247		10.937206	-3.211370	2.598824	0.761219	-0.007611	-0.615217	0.204927
37248		11.174125	-2.892448	3.147570	0.763778	-0.009245	-0.611604	0.206152
37249		10.849341	-2.860836	2.911754	0.766483	-0.011458	-0.607843	0.207123
37250		11.166341	-2.642840	2.926398	0.769306	-0.013970	-0.603906	0.208017
37251		11.182489	-2.459628	3.469553	0.772376	-0.016854	-0.599638	0.208772
37252		10.966049	-2.613781	3.016762	0.775524	-0.020173	-0.595246	0.209377
37253		11.200055	-2.464015	3.599962	0.778791	-0.023811	-0.590621	0.209963
37254		10.814490	-2.274644	3.704200	0.782227	-0.027954	-0.585723	0.210399
37255		11.017261	-2.547733	3.345451	0.785778	-0.032860	-0.580621	0.210601
37256		11.353030	-2.523332	3.722230	0.789457	-0.038029	-0.575197	0.210855
37257		10.958209	-2.673600	3.477240	0.793274	-0.043422	-0.569438	0.211119
37258		11.188240	-3.042609	3.637068	0.797092	-0.048847	-0.563492	0.211508
37259		11.244873	-3.416843	3.990704	0.801032	-0.054080	-0.557154	0.212138
37260		11.114904	-3.945122	3.855470	0.804960	-0.059392	-0.550587	0.212991
37261		11.368635	-4.198888	4.354919	0.808938	-0.064394	-0.543652	0.214278
37262		11.060822	-4.235393	4.095182	0.812958	-0.069385	-0.536383	0.215819
37263		11.392221	-4.238826	4.403857	0.816953	-0.074625	-0.528908	0.217428
37264		11.433745	-4.051761	4.757509	0.820987	-0.080041	-0.521121	0.219105
37265		11.263020	-4.251464	4.641670	0.825002	-0.086148	-0.513133	0.220557
37266		11.411509	-4.372589	5.025886	0.828957	-0.092686	-0.504964	0.221924
37267		11.206484	-4.714392	5.275930	0.832855	-0.099758	-0.496590	0.223157
37268		11.274089	-4.899334	5.441001	0.836595	-0.107147	-0.488113	0.224441
37269		11.249137	-5.630644	6.024737	0.840243	-0.114988	-0.479386	0.225741
37270		11.389141	-5.928583	6.366370	0.843755	-0.122965	-0.470428	0.227274
37271		11.412247	-6.238957	6.666649	0.847188	-0.131097	-0.461135	0.228999
37272		11.229984	-6.532865	6.664605	0.850416	-0.139393	-0.451722	0.230888
37273		11.294198	-6.503470	6.658206	0.853541	-0.147734	-0.442085	0.232817
37274		10.934516	-6.637794	6.681711	0.856471	-0.156321	-0.432364	0.234697
37275		10.803059	-6.910481	6.318784	0.859206	-0.164946	-0.422620	0.236537
37276		10.800781	-6.701946	6.021484	0.861717	-0.173462	-0.413006	0.238289
37277		10.453722	-6.924302	5.801626	0.864007	-0.181837	-0.403581	0.239896
37278		9.907453	-7.255756	5.170866	0.865981	-0.189916	-0.394633	0.241399
37279		9.521874	-7.619771	4.707768	0.867714	-0.197294	-0.386191	0.242907
37280		9.131908	-7.494268	4.314600	0.869211	-0.203905	-0.378375	0.244393
37281		8.752221	-7.111237	4.359239	0.870547	-0.209588	-0.371218	0.245802
37282		7.852289	-6.586418	4.379163	0.871673	-0.214677	-0.364872	0.246919
37283		7.028725	-6.735846	4.606895	0.872623	-0.219034	-0.359361	0.247814
37284		6.166280	-6.718112	4.753595	0.873463	-0.222563	-0.354628	0.248529
37285		5.444596	-7.069994	5.316035	0.874297	-0.225019	-0.350534	0.249192
37286		4.827989	-7.552924	5.738636	0.875145	-0.226498	-0.346926	0.249924
37287		4.647476	-8.236487	6.153920	0.876073	-0.226820	-0.343627	0.250938
37288		4.615413	-8.682773	6.324554	0.877129	-0.225949	-0.340467	0.252339
37289		4.738881	-8.660465	6.189742	0.878232	-0.224125	-0.337521	0.254079
37290		5.088629	-8.285484	6.206784	0.879354	-0.221683	-0.334741	0.256012
37291		5.185284	-7.071540	5.933348	0.880411	-0.218881	-0.332256	0.258018
37292		5.539220	-5.063097	5.727889	0.881467	-0.215759	-0.330181	0.259700
37293		5.493410	-4.989089	5.890408	0.882366	-0.213001	-0.328628	0.260893
37294		5.209707	-6.612092	5.634981	0.883099	-0.210535	-0.327433	0.261913
37295		4.978334	-7.161076	5.912537	0.883776	-0.207789	-0.326375	0.263140
37296		4.601066	-5.543546	6.024271	0.884526	-0.204460	-0.325385	0.264451
37297		4.576424	-4.688529	5.713700	0.885134	-0.201373	-0.324833	0.265460
37298		4.927469	-5.488277	5.259650	0.885639	-0.198416	-0.324593	0.266297
37299		4.822215	-6.192971	4.372678	0.886110	-0.194891	-0.324533	0.267405
37300		5.059616	-5.243352	3.993402	0.886616	-0.190408	-0.324714	0.268735
37301		5.098688	-4.228989	4.482650	0.887053	-0.185764	-0.325218	0.269931
37302		4.591904	-3.743268	4.442377	0.887381	-0.181154	-0.326135	0.270877
37303		4.164245	-3.571818	3.738783	0.887721	-0.175665	-0.327461	0.271778
37304		4.417348	-3.995049	4.293562	0.888061	-0.169900	-0.329067	0.272389
37305		5.001364	-4.592241	5.006975	0.888361	-0.164146	-0.330822	0.272814
37306		5.187943	-5.272330	5.596484	0.888666	-0.158562	-0.332439	0.273159
37307		5.004268	-4.197142	5.590382	0.889038	-0.152659	-0.333984	0.273425
37308		4.658252	-3.710443	5.451058	0.889359	-0.146876	-0.335745	0.273394
37309		4.663763	-4.114297	5.151250	0.889622	-0.141176	-0.337756	0.273061
37310		4.417453	-4.109061	4.457548	0.889911	-0.135140	-0.339862	0.272560
37311		3.914837	-4.034866	4.102128	0.890188	-0.128844	-0.342123	0.271875
37312		3.611243	-3.909213	4.035258	0.890396	-0.122511	-0.344627	0.270957
37313		3.463882	-3.917426	4.072486	0.890515	-0.116135	-0.347402	0.269827
37314		3.648524	-3.706150	4.922484	0.890632	-0.109658	-0.350288	0.268417
37315		3.819109	-3.335192	5.498423	0.890715	-0.103048	-0.353304	0.266805
37316		4.652168	-3.208677	5.986505	0.890830	-0.096432	-0.356315	0.264883
37317		4.736548	-3.261186	5.926969	0.890961	-0.089679	-0.359299	0.262776
37318		4.662873	-3.646712	5.950956	0.891149	-0.082604	-0.362197	0.260468
37319		4.783142	-3.723805	5.942441	0.891345	-0.074933	-0.365059	0.258110
37320		4.917933	-3.721094	5.918239	0.891535	-0.066731	-0.367888	0.255678
37321		5.114048	-2.907827	5.629017	0.891698	-0.058138	-0.370650	0.253207
37322		5.463408	-2.161348	5.466011	0.891858	-0.049699	-0.373465	0.250286
37323		5.599811	-1.838391	5.317621	0.891990	-0.041608	-0.376427	0.246829
37324		5.467133	-2.022472	4.952389	0.892108	-0.033564	-0.379496	0.242898
37325		5.581841	-2.304187	5.626712	0.892126	-0.025323	-0.382713	0.238750
37326		5.981185	-2.515863	6.517903	0.892081	-0.016705	-0.385822	0.234638
37327		7.222356	-1.762082	7.763568	0.892070	-0.008085	-0.388702	0.230340
37328		8.493836	-1.442147	9.155589	0.892278	-0.000386	-0.391219	0.225362
37329		9.034123	-2.197005	9.180281	0.892645	0.006434	-0.393433	0.219897
37330		8.582664	-2.870890	8.387328	0.893160	0.013228	-0.395149	0.214353
37331		7.827761	-2.788045	7.521984	0.893735	0.020328	-0.396492	0.208849
37332		7.010963	-2.468593	6.196769	0.894244	0.027750	-0.397704	0.203444
37333		6.817633	-2.075325	5.060440	0.894569	0.035468	-0.398971	0.198268
37334		6.630877	-1.325285	4.404194	0.894705	0.043433	-0.400324	0.193283
37335		6.364200	-0.724817	4.159989	0.894595	0.051664	-0.401883	0.188468
37336		6.369098	0.053086	4.167226	0.894293	0.060034	-0.403591	0.183714
37337		6.810436	0.614555	4.251671	0.893815	0.068265	-0.405489	0.178924
37338		7.405980	1.172687	4.601720	0.893299	0.076120	-0.407385	0.173957
37339		7.470206	1.346315	4.918587	0.892723	0.083331	-0.409424	0.168743
37340		7.794070	1.089257	5.113491	0.892112	0.089951	-0.411527	0.163372
37341		8.235290	0.810536	5.515670	0.891413	0.096303	-0.413665	0.158080
37342		8.342062	0.176281	5.476111	0.890582	0.102763	-0.415763	0.153114
37343		8.516661	0.001167	5.185335	0.889495	0.109756	-0.417888	0.148731
37344		8.569033	0.294539	4.764329	0.888100	0.117373	-0.420095	0.144988
37345		8.709255	0.689214	4.159501	0.886348	0.125241	-0.422609	0.141784
37346		9.071624	1.040315	4.070003	0.884370	0.132905	-0.425356	0.138922
37347		9.257054	1.506619	3.870271	0.882192	0.140013	-0.428447	0.136264
37348		9.258078	1.549931	3.449997	0.879936	0.146066	-0.431907	0.133546
37349		9.080707	1.166332	2.902082	0.877497	0.151187	-0.435913	0.130845
37350		9.066974	1.179485	2.787935	0.874815	0.155835	-0.440381	0.128369
37351		9.132618	1.884000	2.853729	0.871935	0.159948	-0.445243	0.126116
37352		9.156456	2.398322	2.409116	0.868996	0.163188	-0.450429	0.123815
37353		8.945842	2.509721	2.281132	0.866004	0.165439	-0.456002	0.121362
37354		8.215035	2.098357	2.043336	0.862887	0.166932	-0.461978	0.118900
37355		7.332192	1.602893	1.914489	0.859456	0.168149	-0.468442	0.116720
37356		6.211926	1.272833	1.626153	0.855621	0.169453	-0.475369	0.114990
37357		5.152307	1.074997	1.782437	0.851299	0.170811	-0.482879	0.113764
37358		3.676437	0.909749	2.060487	0.846551	0.172194	-0.490820	0.113119
37359		2.231385	0.788118	2.469571	0.841320	0.173378	-0.499351	0.113000
37360		0.470083	0.957446	3.306015	0.835661	0.174476	-0.508282	0.113480
37361		-0.835579	1.358170	4.516237	0.829546	0.175316	-0.517713	0.114414
37362		-1.997697	1.949461	6.287139	0.823128	0.175799	-0.527423	0.115671
37363		-2.742168	2.349616	8.162754	0.816548	0.175675	-0.537278	0.117130
37364		-2.900095	3.273460	9.188772	0.809990	0.174827	-0.547051	0.118692
37365		-1.991699	4.556139	9.608389	0.803493	0.173018	-0.556858	0.119886
37366		-0.194360	6.621595	12.565722	0.797763	0.169411	-0.566161	0.119730
37367		0.756427	7.133831	14.399043	0.793302	0.163320	-0.574578	0.117723
37368		2.275330	6.863679	15.373163	0.790149	0.154822	-0.582007	0.113852
37369		4.102925	7.471734	14.404074	0.787897	0.146035	-0.588172	0.109300
37370		6.283622	6.647878	11.125336	0.786436	0.137541	-0.593137	0.103874
37371		8.738122	6.174884	5.236234	0.784655	0.130450	-0.598016	0.098367
37372		12.244606	3.440942	-1.835005	0.782488	0.124856	-0.602955	0.092564
37373		13.568845	-2.145692	-6.228125	0.779365	0.120857	-0.608501	0.087803
37374		10.916163	-7.505170	-3.379001	0.774458	0.120539	-0.614856	0.087389
37375		8.998089	-3.184574	4.054832	0.768277	0.125457	-0.620854	0.092474
37376		8.151427	2.892473	7.088723	0.762366	0.130128	-0.626274	0.098209
37377		12.372988	3.643449	9.721577	0.758514	0.128775	-0.630949	0.099885
37378		13.964185	-1.908883	8.866585	0.756699	0.123185	-0.634278	0.099618
37379		15.540087	-4.454513	8.024766	0.754424	0.116034	-0.637934	0.102081
37380		12.975754	-2.122028	3.960928	0.751825	0.111046	-0.640744	0.108969
37381		1.586463	2.623193	3.334448	0.751783	0.109234	-0.640142	0.114494
37382		5.502051	3.443130	3.579272	0.751662	0.107848	-0.639846	0.118200
37383		10.360072	3.052274	1.951087	0.752153	0.106509	-0.638885	0.121439
37384		10.228224	2.708181	3.576784	0.752958	0.104021	-0.637728	0.124650
37385		11.822863	2.533438	4.049938	0.753382	0.099555	-0.637100	0.128872
37386		8.579578	1.489925	0.467527	0.755081	0.094920	-0.635076	0.132369
37387		7.144205	5.409215	8.805901	0.756309	0.085349	-0.634666	0.133835
37388		10.600302	-4.826205	-3.069224	0.757916	0.078166	-0.633175	0.136171
37389		7.176091	0.220517	4.428994	0.759953	0.070893	-0.630596	0.140691
37390		7.804129	0.689668	2.140254	0.761027	0.064633	-0.628644	0.146517
37391		7.551266	2.375010	3.551906	0.763320	0.057905	-0.625482	0.150867
37392		8.720418	1.308260	5.159405	0.765840	0.049134	-0.622318	0.154258
37393		10.780529	-0.772485	6.589211	0.768497	0.039388	-0.618790	0.157988
37394		12.036110	-1.539943	7.730563	0.771810	0.029858	-0.613947	0.162748
37395		12.290138	-1.880374	9.075889	0.775756	0.020679	-0.607823	0.168306
37396		13.402579	-2.193831	9.061766	0.780127	0.011591	-0.600720	0.174366
37397		14.748886	-3.227999	9.125338	0.784921	0.002456	-0.592596	0.180896
37398		15.216036	-3.976723	8.448315	0.790076	-0.006184	-0.583312	0.188383
37399		15.605843	-4.193506	8.006751	0.795589	-0.014383	-0.572848	0.196664
37400		15.975599	-4.081341	7.788665	0.801478	-0.022529	-0.561198	0.205386
37401		16.141929	-4.255050	7.811217	0.807873	-0.031261	-0.548236	0.214013
37402		16.366222	-4.473672	7.425918	0.814818	-0.041106	-0.533932	0.222034
37403		16.694865	-4.839146	8.038971	0.822203	-0.052801	-0.518463	0.228888
37404		17.424895	-5.624151	8.260399	0.829781	-0.067010	-0.502109	0.234224
37405		18.190555	-7.814791	8.470932	0.837350	-0.083915	-0.484953	0.237959
37406		18.710271	-9.690705	8.141090	0.844513	-0.101818	-0.467166	0.241219
37407		19.273769	-11.706463	6.847255	0.851322	-0.120165	-0.448891	0.243534
37408		20.245499	-13.487352	5.125090	0.857253	-0.137573	-0.430706	0.246340
37409		20.918464	-14.195805	2.674387	0.862463	-0.153602	-0.412709	0.249471
37410		20.588250	-12.896970	-0.685881	0.866729	-0.168229	-0.395803	0.252627
37411		19.505151	-10.327368	-3.865100	0.869892	-0.181412	-0.381138	0.255169
37412		18.394086	-7.715177	-3.145798	0.872092	-0.193519	-0.369264	0.256224
37413		15.015646	-6.611086	-3.433674	0.873845	-0.202569	-0.359828	0.256679
37414		13.005234	-4.184675	-3.833019	0.875392	-0.208297	-0.353262	0.255944
37415		9.573743	-2.375690	-2.795077	0.876960	-0.210353	-0.349448	0.254123
37416		6.039924	-1.647269	-1.431383	0.878529	-0.209742	-0.348067	0.251086
37417		2.276958	-1.999288	1.533392	0.880001	-0.207916	-0.348682	0.246557
37418		-1.010749	-7.557199	6.366854	0.881623	-0.204776	-0.349844	0.241694
37419		-4.711347	-11.076893	4.945076	0.883385	-0.198924	-0.350978	0.238483
37420		-4.045852	-15.126976	7.949692	0.885618	-0.188544	-0.351905	0.237266
37421		-1.558865	-16.836099	11.783459	0.888730	-0.173357	-0.350934	0.238645
37422		1.761204	-14.795113	7.385499	0.892389	-0.153839	-0.348230	0.242306
37423		5.746534	-8.695190	4.530016	0.896181	-0.132828	-0.344701	0.245760
37424		7.961136	-1.655875	4.467067	0.899420	-0.114559	-0.341902	0.247029
37425		9.883041	1.850164	4.507097	0.901732	-0.101493	-0.341350	0.245067
37426		9.311692	0.630088	5.664887	0.903705	-0.093219	-0.342432	0.239517
37427		7.855477	-2.180103	8.405031	0.905531	-0.085782	-0.344371	0.232516
37428		6.624038	-3.283250	10.437669	0.907479	-0.076682	-0.345895	0.225738
37429		6.292499	-2.833483	10.866392	0.909665	-0.065664	-0.346619	0.219210
37430		5.481416	-3.005912	10.077271	0.912075	-0.053071	-0.346485	0.212724
37431		4.346994	-4.354461	8.048342	0.914388	-0.038876	-0.345962	0.206626
37432		3.617472	-5.935166	6.305727	0.916365	-0.022014	-0.345159	0.201632
37433		3.073368	-4.532540	4.994312	0.917832	-0.002041	-0.344030	0.198051
37434		3.209407	-1.828096	5.009578	0.918741	0.018920	-0.342986	0.194725
37435		3.484510	0.009385	4.598726	0.919238	0.038835	-0.342190	0.190787
37436		3.764853	0.811370	5.308258	0.919465	0.057406	-0.341605	0.185994
37437		3.240175	1.572471	5.956013	0.919491	0.075134	-0.341003	0.180577
37438		2.927019	0.542416	7.047047	0.919280	0.092824	-0.340189	0.174873
37439		2.419294	-1.232530	5.862725	0.918722	0.111162	-0.338882	0.169563
37440		2.191010	-1.889015	3.637419	0.917656	0.129366	-0.337662	0.164790
37441		2.062509	-3.068831	1.435884	0.916277	0.146053	-0.336642	0.160552
37442		2.019457	-3.306121	0.881987	0.914731	0.159778	-0.336366	0.156830
37443		1.650287	-1.189714	2.792406	0.913102	0.171172	-0.336595	0.153781
37444		1.446818	2.339673	4.264661	0.911622	0.180407	-0.337054	0.150977
37445		1.989442	5.401521	4.562226	0.910795	0.186357	-0.337403	0.147930
37446		2.671011	6.985154	4.958825	0.910835	0.188750	-0.337467	0.144462
37447		2.702493	6.960711	4.021436	0.911455	0.188780	-0.337263	0.140944
37448		3.266920	6.947123	4.104417	0.912090	0.188839	-0.336775	0.137892
37449		3.412144	6.677065	3.233988	0.912501	0.189436	-0.336336	0.135404
37450		4.068904	5.916890	2.989349	0.912661	0.190487	-0.336082	0.133470
37451		4.199269	4.766014	3.234389	0.912600	0.191578	-0.336144	0.132160
37452		4.673518	3.018437	3.950172	0.912486	0.191613	-0.336682	0.131524
37453		4.965432	2.089485	4.866189	0.912369	0.190725	-0.337350	0.131915
37454		5.499095	2.742329	5.881399	0.912454	0.188454	-0.337890	0.133205
37455		5.534314	3.548188	5.875569	0.912946	0.183844	-0.338460	0.134818
37456		5.809649	3.212862	4.811200	0.913774	0.176468	-0.339506	0.136423
37457		7.514953	2.947871	5.779510	0.914783	0.167375	-0.340681	0.138180
37458		8.231867	2.736438	6.765044	0.915823	0.157228	-0.341870	0.140256
37459		9.185899	2.627158	7.297644	0.916842	0.146381	-0.343058	0.142425
37460		10.591248	1.974777	8.842043	0.917951	0.134883	-0.343903	0.144582
37461		10.945187	1.156474	9.511948	0.919010	0.123503	-0.344429	0.146753
37462		10.748304	1.349681	8.798934	0.920025	0.112393	-0.344805	0.148433
37463		10.387905	0.373007	9.321771	0.920906	0.101992	-0.345235	0.149472
37464		10.764272	1.341116	9.277443	0.921249	0.095449	-0.345722	0.150552
37465		10.867545	2.443459	9.097508	0.921266	0.093005	-0.346031	0.151265
37466		10.314505	3.493137	7.966863	0.920930	0.094759	-0.346315	0.151572
37467		9.813797	3.362366	7.742798	0.920427	0.099354	-0.346610	0.151009
37468		9.107795	2.330487	6.709355	0.919931	0.105322	-0.346799	0.149552
37469		8.275894	2.055673	5.946996	0.919388	0.112342	-0.346990	0.147319
37470		7.397049	1.296240	5.951790	0.918938	0.119330	-0.347193	0.144117
37471		6.886020	0.287302	5.924640	0.918497	0.126013	-0.347583	0.140249
37472		6.632735	-0.795820	6.444848	0.918008	0.132389	-0.348162	0.136078
37473		6.253073	-2.033575	6.994413	0.917496	0.138461	-0.348728	0.131977
37474		5.876656	-3.397322	8.022930	0.916954	0.144129	-0.349213	0.128348
37475		5.563631	-5.076281	9.082266	0.916257	0.149572	-0.349718	0.125695
37476		5.713115	-5.161528	9.348118	0.915444	0.155074	-0.349909	0.124412
37477		5.488910	-3.833012	8.364606	0.914819	0.159435	-0.349684	0.124128
37478		5.300881	-1.575143	6.434616	0.914427	0.162212	-0.349307	0.124478
37479		5.854777	0.711812	5.795618	0.914530	0.162530	-0.348747	0.124881
37480		5.991025	2.064744	5.068225	0.915313	0.159771	-0.347895	0.125081
37481		5.342714	2.742022	4.663391	0.916504	0.154295	-0.347183	0.125212
37482		5.212523	3.623557	4.700873	0.917778	0.146856	-0.347023	0.125266
37483		5.722693	4.616775	5.477220	0.919109	0.137678	-0.347323	0.125099
37484		6.185015	5.314113	6.513258	0.920474	0.127274	-0.347898	0.124483
37485		6.703454	5.373840	7.324341	0.921728	0.116672	-0.348635	0.123528
37486		6.808292	5.347512	7.870173	0.922813	0.106879	-0.349272	0.122483
37487		6.890140	5.166158	8.038635	0.923587	0.099226	-0.349780	0.121633
37488		7.384099	4.732951	8.314511	0.924047	0.094299	-0.350129	0.121057
37489		7.708171	4.017190	8.047689	0.924119	0.092360	-0.350520	0.120866
37490		7.404318	2.772389	7.878693	0.923915	0.092776	-0.350928	0.120927
37491		7.634301	0.883772	7.854690	0.923381	0.094836	-0.351630	0.121370
37492		8.094573	-0.045002	7.751926	0.922606	0.098057	-0.352421	0.122406
37493		8.611638	-0.310765	8.109665	0.921765	0.101462	-0.353208	0.123691
37494		8.913286	-0.392083	8.547367	0.920963	0.104355	-0.353986	0.125024
37495		9.319754	-0.219551	8.889673	0.920269	0.106228	-0.354817	0.126199
37496		9.486706	-0.372830	9.126876	0.919747	0.106868	-0.355644	0.127129
37497		9.333086	-0.800242	8.802759	0.919322	0.106817	-0.356438	0.128018
37498		9.072323	-0.527537	8.166344	0.918899	0.106685	-0.357215	0.128997
37499		8.722613	0.012931	7.368724	0.918442	0.106563	-0.358055	0.130018
37500		8.309260	0.463123	6.678751	0.917935	0.106439	-0.359056	0.130941
37501		8.046748	0.868838	6.168110	0.917366	0.106321	-0.360260	0.131712
37502		7.918443	1.009791	5.964198	0.916747	0.106357	-0.361594	0.132335
37503		7.866270	1.214413	6.041109	0.916058	0.106657	-0.363068	0.132825
37504		7.725459	1.544387	5.996752	0.915336	0.107311	-0.364580	0.133136
37505		7.910531	1.734177	5.970710	0.914594	0.108122	-0.366184	0.133180
37506		8.243955	1.616561	6.214242	0.913896	0.109142	-0.367692	0.132985
37507		8.459704	1.394973	6.341816	0.913237	0.110272	-0.369147	0.132544
37508		8.574434	0.878542	6.239105	0.912611	0.111511	-0.370519	0.131993
37509		8.444727	0.384633	6.112933	0.911982	0.112972	-0.371821	0.131438
37510		8.064315	0.308623	5.747057	0.911293	0.114648	-0.373178	0.130917
37511		8.062674	-0.068691	5.636700	0.910560	0.116385	-0.374583	0.130473
37512		7.751777	0.049580	5.056470	0.909744	0.118256	-0.376095	0.130128
37513		7.734143	0.135419	4.815163	0.908833	0.120144	-0.377778	0.129888
37514		7.558283	0.259689	4.396218	0.907865	0.122030	-0.379555	0.129719
37515		7.226019	0.439088	3.978969	0.906777	0.123784	-0.381638	0.129559
37516		6.924834	0.467452	3.578588	0.905556	0.125455	-0.384030	0.129419
37517		6.915671	0.607603	3.813241	0.904207	0.127013	-0.386724	0.129314
37518		6.859782	0.985911	3.994575	0.902756	0.128432	-0.389657	0.129248
37519		7.338357	1.121101	4.883184	0.901262	0.129504	-0.392782	0.129144
37520		7.720857	1.802071	5.980726	0.899848	0.130260	-0.395800	0.129030
37521		7.652590	1.768646	6.365683	0.898550	0.130630	-0.398680	0.128832
37522		7.771470	1.678148	6.390682	0.897332	0.130797	-0.401449	0.128553
37523		7.507342	1.355372	6.059201	0.896086	0.131115	-0.404169	0.128397
37524		7.043980	1.033397	5.812762	0.894716	0.131796	-0.406953	0.128461
37525		6.450166	0.926118	5.303331	0.893184	0.132851	-0.409845	0.128840
37526		5.971022	0.622786	5.095509	0.891511	0.134126	-0.412843	0.129536
37527		5.371779	0.818835	5.003525	0.889647	0.135628	-0.416009	0.130654
37528		4.852939	0.999961	4.873758	0.887674	0.137149	-0.419259	0.132086
37529		4.679124	1.359036	4.330821	0.885559	0.138428	-0.422807	0.133629
37530		4.683209	1.389503	4.200761	0.883375	0.139374	-0.426535	0.135247
37531		4.722047	1.710577	4.541807	0.881070	0.140093	-0.430512	0.136926
37532		4.902733	2.052908	4.753350	0.878753	0.140410	-0.434613	0.138525
37533		5.355646	2.114371	5.235520	0.876455	0.140251	-0.438820	0.139974
37534		5.852598	2.010947	5.677441	0.874217	0.139720	-0.443018	0.141272
37535		6.301218	1.726297	6.021010	0.872026	0.139084	-0.447112	0.142538
37536		6.634666	1.621592	6.139548	0.869839	0.138420	-0.451155	0.143806
37537		7.112749	1.340305	6.236028	0.867638	0.137667	-0.455191	0.145097
37538		7.406931	1.069497	6.250665	0.865452	0.136872	-0.459148	0.146429
37539		7.508663	0.816919	6.164951	0.863237	0.136130	-0.463058	0.147879
37540		7.540790	0.698268	5.940748	0.860971	0.135497	-0.466944	0.149442
37541		7.301358	0.700489	5.637099	0.858610	0.134971	-0.470890	0.151111
37542		7.074119	0.729089	5.154010	0.856160	0.134571	-0.474888	0.152850
37543		6.725264	0.797694	4.534344	0.853545	0.134262	-0.479088	0.154625
37544		6.380709	0.845055	4.222576	0.850786	0.134053	-0.483463	0.156385
37545		6.067235	0.956404	3.678440	0.847826	0.133813	-0.488166	0.158048
37546		5.916753	1.001865	3.564319	0.844710	0.133413	-0.493162	0.159555
37547		5.740225	0.961565	3.602261	0.841438	0.132704	-0.498514	0.160799
37548		5.489028	0.924306	3.725046	0.838025	0.131667	-0.504165	0.161847
37549		5.368757	0.807890	4.134158	0.834488	0.130319	-0.510097	0.162629
37550		5.083628	0.593510	4.167268	0.830841	0.128570	-0.516276	0.163191
37551		4.769953	0.325778	4.665077	0.826993	0.126602	-0.522735	0.163714
37552		4.701388	0.350457	5.107728	0.822995	0.124509	-0.529319	0.164312
37553		4.587891	0.691465	5.517840	0.818891	0.122166	-0.535998	0.164919
37554		4.710829	0.939136	6.474282	0.814767	0.119522	-0.542660	0.165497
37555		4.916205	1.300905	6.773240	0.810682	0.116610	-0.549204	0.166045
37556		5.127841	1.454467	6.689070	0.806625	0.113326	-0.555716	0.166412
37557		5.521915	1.194388	6.850542	0.802607	0.109829	-0.562107	0.166719
37558		6.073299	1.006227	6.513784	0.798526	0.106386	-0.568418	0.167152
37559		7.017465	0.918465	6.663338	0.794489	0.103143	-0.574456	0.167779
37560		7.727744	0.870438	6.301281	0.790557	0.100079	-0.580150	0.168614
37561		8.110357	0.691989	5.833260	0.786711	0.097000	-0.585622	0.169479
37562		8.042204	0.566355	5.191848	0.782963	0.093824	-0.590899	0.170310
37563		7.799062	0.207349	4.775449	0.779277	0.090366	-0.596076	0.171039
37564		7.938903	0.034973	4.936838	0.775739	0.086641	-0.601000	0.171818
37565		8.186195	0.169721	4.969785	0.772484	0.082544	-0.605540	0.172558
37566		8.362894	0.095725	5.129083	0.769573	0.077888	-0.609695	0.173101
37567		8.335471	0.064396	4.863555	0.767030	0.072805	-0.613380	0.173578
37568		8.185752	-0.174406	4.440051	0.764780	0.067394	-0.616689	0.173968
37569		8.354496	-0.405607	4.335960	0.762807	0.061751	-0.619578	0.174456
37570		8.594548	-0.844165	4.436748	0.761284	0.055870	-0.621805	0.175170
37571		8.766592	-1.114536	4.796741	0.760681	0.049222	-0.622861	0.176029
37572		8.228462	-0.597781	3.780790	0.760427	0.042564	-0.623289	0.177341
37573		8.428064	-0.763334	3.306567	0.760170	0.035660	-0.623601	0.178861
37574		8.836177	0.210273	4.103554	0.760253	0.028260	-0.623499	0.180180
37575		8.369639	0.039839	3.770786	0.760442	0.020160	-0.623350	0.180985
37576		8.757460	-0.380764	4.575591	0.760866	0.011414	-0.622862	0.181647
37577		8.496683	-0.420578	4.736553	0.761693	0.002265	-0.621761	0.182298
37578		8.650269	-0.525213	5.060776	0.762658	-0.007231	-0.620354	0.182926
37579		8.410033	-0.655186	5.426689	0.763982	-0.016932	-0.618322	0.183640
37580		8.098934	-1.322630	5.282813	0.765485	-0.026759	-0.615830	0.184581
37581		8.101903	-1.748281	5.128603	0.767252	-0.036230	-0.612649	0.186205
37582		7.788286	-2.376417	4.507282	0.769110	-0.045275	-0.609008	0.188494
37583		8.196452	-2.480419	4.836755	0.771145	-0.053662	-0.604745	0.191676
37584		8.034071	-2.427410	4.778194	0.773418	-0.061828	-0.599852	0.195393
37585		8.256897	-2.858580	4.995600	0.775987	-0.069811	-0.594281	0.199501
37586		8.226061	-3.513803	4.879559	0.778942	-0.077452	-0.587899	0.204022
37587		8.520309	-4.152100	5.027076	0.782263	-0.084431	-0.580742	0.208984
37588		8.611559	-5.144303	5.517665	0.785926	-0.090780	-0.572815	0.214386
37589		9.072765	-6.052953	5.818296	0.790046	-0.096061	-0.563903	0.220483
37590		9.631337	-6.660562	6.607163	0.794671	-0.100194	-0.554003	0.227024
37591		10.252272	-7.371888	7.565523	0.799971	-0.103671	-0.542864	0.233660
37592		11.220762	-7.960901	8.551815	0.805870	-0.107677	-0.530662	0.239533
37593		12.648083	-9.232218	9.804773	0.812377	-0.113146	-0.517351	0.244108
37594		14.112419	-10.098076	10.870455	0.819323	-0.120357	-0.503094	0.247226
37595		15.824112	-11.122327	12.006038	0.826450	-0.129388	-0.488147	0.248903
37596		17.154681	-12.360598	12.774525	0.833573	-0.139552	-0.472658	0.249551
37597		18.110614	-13.962479	12.321701	0.840666	-0.149803	-0.456498	0.249897
37598		19.095495	-14.042997	11.586011	0.847801	-0.159025	-0.439633	0.250333
37599		19.743765	-13.281256	10.257869	0.854714	-0.167887	-0.422652	0.250285
37600		20.264692	-13.749604	7.563905	0.861009	-0.177055	-0.406318	0.249441
37601		20.684985	-14.248917	3.968574	0.866658	-0.185095	-0.391068	0.248413
37602		20.698928	-14.499118	0.338434	0.871541	-0.190923	-0.377649	0.247681
37603		20.751334	-13.388607	-2.272425	0.875775	-0.193140	-0.366517	0.247750
37604		19.818171	-10.017988	-3.593881	0.879562	-0.191559	-0.357785	0.248325
37605		17.193197	-5.556479	-3.263103	0.882914	-0.186950	-0.351657	0.248696
37606		14.033694	-1.356919	-2.777965	0.885759	-0.180301	-0.348412	0.248056
37607		10.639023	2.250310	-1.715122	0.888109	-0.172695	-0.347956	0.245693
37608		6.945664	2.853792	1.710875	0.890170	-0.165395	-0.349369	0.241212
37609		2.925059	0.997561	4.882678	0.891964	-0.159453	-0.351922	0.234788
37610		-1.019640	-2.632185	7.401190	0.893647	-0.154575	-0.354579	0.227540
37611		-3.660760	-7.571427	9.859632	0.895308	-0.149670	-0.356687	0.220900
